Observer;SessionID;Block;Trial;OnsetDelay;Yellow;Switch;SwitchTime;Gap;Direction;Response;RT
ACR94m;2017-05-30-13-09-02;1;1;0,920882717864;True;right;1,1;-0,15;1;both;4,61100006104
ACR94m;2017-05-30-13-09-02;1;2;0,865290804483;False;right;1,7;-0,15;-1;both;0,59500002861
ACR94m;2017-05-30-13-09-02;1;3;1,00313020425;True;right;1,7;0,0;1;both;1,20000004768
ACR94m;2017-05-30-13-09-02;1;4;1,18184186311;False;neither;1,3;0,15;-1;neither;0,90900015831
ACR94m;2017-05-30-13-09-02;1;5;0,90129775529;True;both;1,3;0,15;-1;neither;1,21100020409
ACR94m;2017-05-30-13-09-02;1;6;0,822085284847;False;both;1,5;-0,15;1;right;0,911000013351
ACR94m;2017-05-30-13-09-02;1;7;1,08377697952;True;left;1,3;0,0;-1;neither;2,33599996567
ACR94m;2017-05-30-13-09-02;1;8;1,17854984692;False;both;1,9;-0,15;1;neither;1,20700001717
ACR94m;2017-05-30-13-09-02;1;9;1,09220509742;True;left;1,3;-0,15;1;neither;0,960000038147
ACR94m;2017-05-30-13-09-02;1;10;0,991825653106;False;right;1,9;0,15;1;left;2,78100013733
ACR94m;2017-05-30-13-09-02;1;11;1,00235514514;True;both;1,3;0,0;-1;neither;0,784999847412
ACR94m;2017-05-30-13-09-02;1;12;0,877033457419;False;neither;1,7;0,0;-1;neither;0,805999994278
ACR94m;2017-05-30-13-09-02;1;13;0,953328809759;True;left;1,3;0,0;1;left;0,569999933243
ACR94m;2017-05-30-13-09-02;1;14;0,885665044942;False;right;1,9;0,15;1;left;0,760999917984
ACR94m;2017-05-30-13-09-02;1;15;0,825124417967;True;neither;1,5;0,15;1;neither;0,924999952316
ACR94m;2017-05-30-13-09-02;1;16;1,04660932388;False;left;1,1;0,15;1;neither;0,645999908447
ACR94m;2017-05-30-13-09-02;1;17;1,05353284372;True;left;1,9;0,0;-1;neither;0,761999845505
ACR94m;2017-05-30-13-09-02;1;18;0,917062728509;False;right;1,9;0,0;1;neither;1,28100013733
ACR94m;2017-05-30-13-09-02;1;19;1,00577832463;True;left;1,1;0,0;-1;right;1,68700003624
ACR94m;2017-05-30-13-09-02;1;20;0,993170583775;False;right;1,5;0,15;1;right;1,01900005341
ACR94m;2017-05-30-13-09-02;1;21;0,940846140495;True;neither;1,3;0,0;-1;left;0,993000030518
ACR94m;2017-05-30-13-09-02;1;22;1,04977880151;False;left;1,9;-0,15;-1;neither;1,20200014114
ACR94m;2017-05-30-13-09-02;1;23;1,18706497919;True;left;1,7;-0,15;-1;left;0,532999992371
ACR94m;2017-05-30-13-09-02;1;24;0,991281589606;False;left;1,7;0,0;1;neither;0,982000112534
ACR94m;2017-05-30-13-09-02;1;25;1,09148686982;True;left;1,5;0,0;1;right;4,39899992943
ACR94m;2017-05-30-13-09-02;1;26;0,969713567903;False;left;1,3;-0,15;-1;neither;0,614000082016
ACR94m;2017-05-30-13-09-02;1;27;0,869808602543;True;right;1,3;-0,15;-1;neither;0,68499994278
ACR94m;2017-05-30-13-09-02;1;28;0,994643250583;False;both;1,9;0,0;1;both;2,10399985313
ACR94m;2017-05-30-13-09-02;1;29;0,83044081886;True;neither;1,5;0,0;1;right;3,46700000763
ACR94m;2017-05-30-13-09-02;1;30;0,871821827134;False;both;1,9;0,15;1;neither;0,487999916077
ACR94m;2017-05-30-13-09-02;1;31;1,10901742386;True;right;1,1;-0,15;-1;neither;1,63400006294
ACR94m;2017-05-30-13-09-02;1;32;1,17781604109;False;neither;1,9;-0,15;1;neither;0,68700003624
ACR94m;2017-05-30-13-09-02;1;33;0,875314693498;True;left;1,5;0,0;1;neither;0,452000141144
ACR94m;2017-05-30-13-09-02;1;34;1,04794048734;False;right;1,5;0,0;1;neither;1,44000005722
ACR94m;2017-05-30-13-09-02;1;35;1,15914581472;True;right;1,5;0,0;-1;neither;0,542999982834
ACR94m;2017-05-30-13-09-02;1;36;1,17259053842;False;left;1,1;-0,15;1;neither;0,762999773026
ACR94m;2017-05-30-13-09-02;1;37;1,03124284171;True;neither;1,7;-0,15;1;neither;0,368000030518
ACR94m;2017-05-30-13-09-02;1;38;1,06823589016;False;neither;1,7;0,15;-1;neither;0,649999856949
ACR94m;2017-05-30-13-09-02;1;39;1,19528840207;True;left;1,5;-0,15;1;neither;0,457999944687
ACR94m;2017-05-30-13-09-02;1;40;0,84295387072;False;both;1,5;0,15;1;neither;0,644999980927
ACR94m;2017-05-30-13-09-02;1;41;0,946069481931;True;left;1,5;0,15;1;neither;0,53200006485
ACR94m;2017-05-30-13-09-02;1;42;0,813995300555;False;right;1,7;0,15;1;neither;0,781000137329
ACR94m;2017-05-30-13-09-02;1;43;1,11889557345;True;left;1,1;0,15;1;neither;0,961000204086
ACR94m;2017-05-30-13-09-02;1;44;1,14605984896;False;left;1,5;-0,15;1;neither;0,0460000038147
ACR94m;2017-05-30-13-09-02;1;45;0,884643382912;True;right;1,9;0,0;1;neither;0,638000011444
ACR94m;2017-05-30-13-09-02;2;1;0,895225882965;False;right;1,1;-0,15;-1;neither;0,588000059128
ACR94m;2017-05-30-13-09-02;2;2;1,02796836779;True;right;1,7;-0,15;1;neither;0,380999803543
ACR94m;2017-05-30-13-09-02;2;3;0,834636898178;False;right;1,7;0,0;1;neither;0,0
ACR94m;2017-05-30-13-09-02;2;4;1,1331893332;True;neither;1,3;0,15;1;neither;0,649999856949
ACR94m;2017-05-30-13-09-02;2;5;0,845271053505;False;both;1,3;0,15;1;both;0,000999927520752
ACR94m;2017-05-30-13-09-02;2;6;1,09018849871;True;both;1,5;-0,15;-1;both;0,0
ACR94m;2017-05-30-13-09-02;2;7;0,914149823512;False;left;1,3;0,0;1;neither;0,770999908447
ACR94m;2017-05-30-13-09-02;2;8;0,811909192977;True;both;1,9;-0,15;1;neither;0,838999986649
ACR94m;2017-05-30-13-09-02;2;9;1,13623680762;False;left;1,3;-0,15;-1;neither;1,00199985504
ACR94m;2017-05-30-13-09-02;2;10;0,958480479268;True;right;1,9;0,15;1;neither;0,860999822617
ACR94m;2017-05-30-13-09-02;2;11;0,964868175697;False;both;1,3;0,0;1;neither;0,690999984741
ACR94m;2017-05-30-13-09-02;2;12;1,19218797523;True;neither;1,7;0,0;1;neither;0,723999977112
ACR94m;2017-05-30-13-09-02;2;13;0,987778410231;False;left;1,3;0,0;-1;neither;0,302000045776
ACR94m;2017-05-30-13-09-02;2;14;0,952720774868;True;right;1,9;0,15;1;neither;0,548000097275
ACR94m;2017-05-30-13-09-02;2;15;0,986435825387;False;neither;1,5;0,15;1;neither;0,671000003815
ACR94m;2017-05-30-13-09-02;2;16;0,968486751552;True;left;1,1;0,15;-1;neither;0,751000165939
ACR94m;2017-05-30-13-09-02;2;17;0,977752878683;False;left;1,9;0,0;1;neither;0,858000040054
ACR94m;2017-05-30-13-09-02;2;18;1,03032998325;True;right;1,9;0,0;1;neither;0,644000053406
ACR94m;2017-05-30-13-09-02;2;19;1,0418214373;False;left;1,1;0,0;-1;neither;0,739000082016
ACR94m;2017-05-30-13-09-02;2;20;1,19928334559;True;right;1,5;0,15;1;neither;0,547000169754
ACR94m;2017-05-30-13-09-02;2;21;0,842782926676;False;neither;1,3;0,0;-1;neither;0,730999946594
ACR94m;2017-05-30-13-09-02;2;22;0,859194494057;True;left;1,9;-0,15;-1;neither;0,845999956131
ACR94m;2017-05-30-13-09-02;2;23;0,859992860346;False;left;1,7;-0,15;-1;neither;0,40399980545
ACR94m;2017-05-30-13-09-02;2;24;0,887922269604;True;left;1,7;0,0;1;neither;0,0
ACR94m;2017-05-30-13-09-02;2;25;0,90099644816;False;left;1,5;0,0;-1;neither;0,00600004196167
ACR94m;2017-05-30-13-09-02;2;26;1,18283192663;True;left;1,3;-0,15;1;neither;0,394999980927
ACR94m;2017-05-30-13-09-02;2;27;0,90386425966;False;right;1,3;-0,15;-1;neither;0,660000085831
ACR94m;2017-05-30-13-09-02;2;28;1,16269184517;True;both;1,9;0,0;-1;neither;0,000999927520752
ACR94m;2017-05-30-13-09-02;2;29;0,986461963855;False;neither;1,5;0,0;-1;neither;0,0
ACR94m;2017-05-30-13-09-02;2;30;1,10725785583;True;both;1,9;0,15;1;neither;1,16799998283
ACR94m;2017-05-30-13-09-02;2;31;0,910432959582;False;right;1,1;-0,15;1;neither;0,501999855042
ACR94m;2017-05-30-13-09-02;2;32;0,953470945225;True;neither;1,9;-0,15;1;neither;0,000999927520752
ACR94m;2017-05-30-13-09-02;2;33;0,85166336671;False;left;1,5;0,0;-1;neither;0,557999849319
ACR94m;2017-05-30-13-09-02;2;34;1,13800037742;True;right;1,5;0,0;1;neither;0,368000030518
ACR94m;2017-05-30-13-09-02;2;35;0,921331604353;False;right;1,5;0,0;1;neither;0,558000087738
ACR94m;2017-05-30-13-09-02;2;36;1,12699926276;True;left;1,1;-0,15;-1;neither;0,000999927520752
ACR94m;2017-05-30-13-09-02;2;37;1,02647390295;False;neither;1,7;-0,15;1;neither;0,126999855042
ACR94m;2017-05-30-13-09-02;2;38;0,893857892597;True;neither;1,7;0,15;-1;neither;0,775000095367
ACR94m;2017-05-30-13-09-02;2;39;1,12716264061;False;left;1,5;-0,15;1;neither;0,934000015259
ACR94m;2017-05-30-13-09-02;2;40;1,01981886852;True;both;1,5;0,15;-1;neither;0,655999898911
ACR94m;2017-05-30-13-09-02;2;41;0,806527734332;False;left;1,5;0,15;-1;neither;0,598999977112
ACR94m;2017-05-30-13-09-02;2;42;0,85808669589;True;right;1,7;0,15;-1;neither;0,527000188828
ACR94m;2017-05-30-13-09-02;2;43;1,14879849969;False;left;1,1;0,15;1;neither;0,0
ACR94m;2017-05-30-13-09-02;2;44;0,845626267766;True;left;1,5;-0,15;-1;neither;0,148999929428
ACR94m;2017-05-30-13-09-02;2;45;1,16587819912;False;right;1,9;0,0;-1;neither;0,0
ACR94m;2017-05-30-13-09-02;3;1;0,876166742179;True;neither;1,9;0,0;-1;neither;0,846999883652
ACR94m;2017-05-30-13-09-02;3;2;1,19677438218;False;neither;1,5;0,15;-1;neither;0,986000061035
ACR94m;2017-05-30-13-09-02;3;3;0,814774062164;True;right;1,9;-0,15;1;neither;0,525000095367
ACR94m;2017-05-30-13-09-02;3;4;0,96926590234;False;right;1,9;0,0;-1;neither;0,507000207901
ACR94m;2017-05-30-13-09-02;3;5;1,15808777098;True;left;1,5;-0,15;1;neither;0,549999952316
ACR94m;2017-05-30-13-09-02;3;6;1,08699856346;False;right;1,5;-0,15;-1;neither;0,548000097275
ACR94m;2017-05-30-13-09-02;3;7;1,06400070553;True;both;1,1;0,15;-1;neither;0,543999910355
ACR94m;2017-05-30-13-09-02;3;8;0,98296370251;False;left;1,7;0,15;1;neither;0,526000022888
ACR94m;2017-05-30-13-09-02;3;9;0,957741503378;True;right;1,7;-0,15;-1;neither;0,483999967575
ACR94m;2017-05-30-13-09-02;3;10;0,850183872372;False;left;1,1;0,15;1;neither;0,53200006485
ACR94m;2017-05-30-13-09-02;3;11;1,02952077392;True;neither;1,1;-0,15;-1;neither;0,447000026703
ACR94m;2017-05-30-13-09-02;3;12;1,04232067946;False;left;1,9;0,0;-1;neither;0,53400015831
ACR94m;2017-05-30-13-09-02;3;13;0,907332422165;True;left;1,9;-0,15;-1;neither;0,468999862671
ACR94m;2017-05-30-13-09-02;3;14;1,11353038437;False;left;1,5;0,0;-1;neither;0,730999946594
ACR94m;2017-05-30-13-09-02;3;15;0,809782780734;True;left;1,7;-0,15;-1;neither;0,482000112534
ACR94m;2017-05-30-13-09-02;3;16;1,12775087441;False;right;1,3;-0,15;-1;neither;6,00699996948
ACR94m;2017-05-30-13-09-02;3;17;0,904315967937;True;left;1,5;0,15;-1;neither;0,615999937057
ACR94m;2017-05-30-13-09-02;3;18;0,840124149072;False;right;1,7;0,0;-1;neither;0,611999988556
ACR94m;2017-05-30-13-09-02;3;19;1,15173972576;True;right;1,1;0,0;1;neither;0,582000017166
ACR94m;2017-05-30-13-09-02;3;20;0,849872534991;False;right;1,3;-0,15;1;neither;0,634000062943
ACR94m;2017-05-30-13-09-02;3;21;1,0128949679;True;left;1,3;-0,15;1;neither;0,49799990654
ACR94m;2017-05-30-13-09-02;3;22;0,963204283377;False;neither;1,1;0,15;-1;neither;0,435000181198
ACR94m;2017-05-30-13-09-02;3;23;0,95898784999;True;both;1,5;0,15;1;neither;0,539999961853
ACR94m;2017-05-30-13-09-02;3;24;1,19781249743;False;both;1,7;0,0;-1;neither;0,503999948502
ACR94m;2017-05-30-13-09-02;3;25;1,04221216766;True;both;1,5;-0,15;1;neither;0,40700006485
ACR94m;2017-05-30-13-09-02;3;26;0,8894366643;False;right;1,7;-0,15;-1;neither;0,408999919891
ACR94m;2017-05-30-13-09-02;3;27;0,864435009638;True;left;1,9;0,15;-1;neither;0,461000204086
ACR94m;2017-05-30-13-09-02;3;28;0,801269226214;False;left;1,7;-0,15;-1;neither;0,441999912262
ACR94m;2017-05-30-13-09-02;3;29;1,01211811032;True;left;1,7;0,0;1;neither;0,391999959946
ACR94m;2017-05-30-13-09-02;3;30;0,852816052174;False;right;1,1;0,15;1;both;0,318000078201
ACR94m;2017-05-30-13-09-02;3;31;1,11389125353;True;right;1,1;0,15;1;neither;0,513999938965
ACR94m;2017-05-30-13-09-02;3;32;0,915475174297;False;both;1,1;0,0;1;neither;0,413000106812
ACR94m;2017-05-30-13-09-02;3;33;0,862690479917;True;left;1,3;0,0;-1;neither;0,315999984741
ACR94m;2017-05-30-13-09-02;3;34;1,18224932979;False;right;1,1;-0,15;-1;neither;0,322000026703
ACR94m;2017-05-30-13-09-02;3;35;1,15508772494;True;left;1,3;0,15;1;neither;0,674000024796
ACR94m;2017-05-30-13-09-02;3;36;0,811749595825;False;left;1,3;0,15;-1;neither;0,457000017166
ACR94m;2017-05-30-13-09-02;3;37;1,0763036438;True;right;1,5;0,0;-1;neither;0,519999980927
ACR94m;2017-05-30-13-09-02;3;38;1,00974402035;False;neither;1,7;0,0;-1;neither;0,379999876022
ACR94m;2017-05-30-13-09-02;3;39;0,824162193666;True;right;1,5;-0,15;1;neither;0,595999956131
ACR94m;2017-05-30-13-09-02;3;40;0,873688617236;False;left;1,9;-0,15;-1;neither;2,03399991989
ACR94m;2017-05-30-13-09-02;3;41;0,996542993571;True;left;1,1;0,15;1;neither;0,642999887466
ACR94m;2017-05-30-13-09-02;3;42;1,12265381976;False;right;1,9;0,15;-1;neither;0,719000101089
ACR94m;2017-05-30-13-09-02;3;43;0,908134853454;True;neither;1,9;0,15;-1;neither;0,673000097275
ACR94m;2017-05-30-13-09-02;3;44;0,960137842318;False;neither;1,7;-0,15;-1;neither;3,99099993706
ACR94m;2017-05-30-13-09-02;3;45;1,02456868974;True;right;1,5;0,15;1;neither;3,79600000381
ACR94m;2017-05-30-13-09-02;4;1;0,849450715157;False;neither;1,9;0,0;1;neither;0,612999916077
ACR94m;2017-05-30-13-09-02;4;2;0,992123907518;True;neither;1,5;0,15;1;neither;0,90700006485
ACR94m;2017-05-30-13-09-02;4;3;0,957073503272;False;right;1,9;-0,15;1;neither;0,721999883652
ACR94m;2017-05-30-13-09-02;4;4;0,917638144668;True;right;1,9;0,0;-1;neither;0,578000068665
ACR94m;2017-05-30-13-09-02;4;5;0,894765965561;False;left;1,5;-0,15;1;neither;0,457999944687
ACR94m;2017-05-30-13-09-02;4;6;0,857042271686;True;right;1,5;-0,15;1;neither;0,9359998703
ACR94m;2017-05-30-13-09-02;4;7;1,10661976761;False;both;1,1;0,15;-1;neither;0,499000072479
ACR94m;2017-05-30-13-09-02;4;8;1,19664033323;True;left;1,7;0,15;1;both;0,503000020981
ACR94m;2017-05-30-13-09-02;4;9;0,965928199332;False;right;1,7;-0,15;-1;neither;1,05099987984
ACR94m;2017-05-30-13-09-02;4;10;1,11241018214;True;left;1,1;0,15;1;neither;1,88499999046
ACR94m;2017-05-30-13-09-02;4;11;0,84759970699;False;neither;1,1;-0,15;1;neither;0,945999860764
ACR94m;2017-05-30-13-09-02;4;12;1,19565198521;True;left;1,9;0,0;-1;neither;0,459999799728
ACR94m;2017-05-30-13-09-02;4;13;1,04269502543;False;left;1,9;-0,15;1;neither;0,476000070572
ACR94m;2017-05-30-13-09-02;4;14;0,882439548247;True;left;1,5;0,0;-1;neither;0,605999946594
ACR94m;2017-05-30-13-09-02;4;15;1,1103940951;False;left;1,7;-0,15;-1;neither;0,703000068665
ACR94m;2017-05-30-13-09-02;4;16;0,823233435387;True;right;1,3;-0,15;1;neither;1,27899980545
ACR94m;2017-05-30-13-09-02;4;17;0,925700967303;False;left;1,5;0,15;-1;neither;0,805999994278
ACR94m;2017-05-30-13-09-02;4;18;0,835589836144;True;right;1,7;0,0;-1;neither;0,565999984741
ACR94m;2017-05-30-13-09-02;4;19;0,820853537779;False;right;1,1;0,0;1;both;0,165000200272
ACR94m;2017-05-30-13-09-02;4;20;0,963781345198;True;right;1,3;-0,15;-1;neither;0,753000020981
ACR94m;2017-05-30-13-09-02;4;21;1,07033723574;False;left;1,3;-0,15;1;neither;1,18299984932
ACR94m;2017-05-30-13-09-02;4;22;1,19512824779;True;neither;1,1;0,15;-1;neither;0,585000038147
ACR94m;2017-05-30-13-09-02;4;23;0,823801822923;False;both;1,5;0,15;-1;neither;0,462000131607
ACR94m;2017-05-30-13-09-02;4;24;1,0463414648;True;both;1,7;0,0;-1;neither;0,493000030518
ACR94m;2017-05-30-13-09-02;4;25;1,18189186998;False;both;1,5;-0,15;-1;neither;0,00100016593933
ACR94m;2017-05-30-13-09-02;4;26;0,984761788155;True;right;1,7;-0,15;1;neither;1,19899988174
ACR94m;2017-05-30-13-09-02;4;27;0,950563122732;False;left;1,9;0,15;-1;neither;0,746999979019
ACR94m;2017-05-30-13-09-02;4;28;0,854677261009;True;left;1,7;-0,15;-1;neither;0,52999997139
ACR94m;2017-05-30-13-09-02;4;29;0,845140469263;False;left;1,7;0,0;-1;neither;0,465000152588
ACR94m;2017-05-30-13-09-02;4;30;0,825761908834;True;right;1,1;0,15;1;both;0,691999912262
ACR94m;2017-05-30-13-09-02;4;31;1,01058791052;False;right;1,1;0,15;-1;neither;1,40700006485
ACR94m;2017-05-30-13-09-02;4;32;0,863761186427;True;both;1,1;0,0;1;both;0,522000074387
ACR94m;2017-05-30-13-09-02;4;33;1,08328915341;False;left;1,3;0,0;-1;neither;1,132999897
ACR94m;2017-05-30-13-09-02;4;34;0,894151847848;True;right;1,1;-0,15;-1;neither;1,51200008392
ACR94m;2017-05-30-13-09-02;4;35;1,08257041036;False;left;1,3;0,15;-1;neither;0,65700006485
ACR94m;2017-05-30-13-09-02;4;36;0,826563674653;True;left;1,3;0,15;-1;neither;0,801000118256
ACR94m;2017-05-30-13-09-02;4;37;1,0597215093;False;right;1,5;0,0;-1;neither;0,702999830246
ACR94m;2017-05-30-13-09-02;4;38;1,02436629911;True;neither;1,7;0,0;1;neither;0,855999946594
ACR94m;2017-05-30-13-09-02;4;39;1,09249749108;False;right;1,5;-0,15;1;neither;2,29299998283
ACR94m;2017-05-30-13-09-02;4;40;0,875122695458;True;left;1,9;-0,15;-1;neither;0,572000026703
ACR94m;2017-05-30-13-09-02;4;41;1,14010279396;False;left;1,1;0,15;1;neither;0,62900018692
ACR94m;2017-05-30-13-09-02;4;42;1,19377712813;True;right;1,9;0,15;-1;neither;0,835000038147
ACR94m;2017-05-30-13-09-02;4;43;1,14900292122;False;neither;1,9;0,15;-1;neither;0,739000082016
ACR94m;2017-05-30-13-09-02;4;44;0,819298210805;True;neither;1,7;-0,15;1;neither;0,527000188828
ACR94m;2017-05-30-13-09-02;4;45;0,870409709632;False;right;1,5;0,15;1;neither;0,740000009537
ACR94m;2017-05-30-13-09-02;5;1;1,1237575171;True;left;1,5;0,0;-1;neither;1,14800000191
ACR94m;2017-05-30-13-09-02;5;2;0,836833705285;False;left;1,3;0,15;-1;neither;0,736999988556
ACR94m;2017-05-30-13-09-02;5;3;0,836248218862;True;right;1,1;-0,15;-1;neither;0,69000005722
ACR94m;2017-05-30-13-09-02;5;4;0,824856327782;False;both;1,3;0,15;-1;neither;0,980000019073
ACR94m;2017-05-30-13-09-02;5;5;0,962245330107;True;right;1,9;0,15;-1;neither;0,0
ACR94m;2017-05-30-13-09-02;5;6;1,11289230497;False;right;1,3;0,15;-1;neither;0,0
ACR94m;2017-05-30-13-09-02;5;7;0,824010373422;True;neither;1,7;-0,15;1;neither;0,0
ACR94m;2017-05-30-13-09-02;5;8;0,958517993103;False;both;1,9;0,0;1;neither;0,0
ACR94m;2017-05-30-13-09-02;5;9;1,02188210688;True;left;1,7;-0,15;1;both;0,0
ACR94m;2017-05-30-13-09-02;5;10;0,807431132719;False;right;1,3;-0,15;-1;neither;0,0
ACR94m;2017-05-30-13-09-02;5;11;1,12308467229;True;right;1,7;-0,15;1;neither;0,0
ACR94m;2017-05-30-13-09-02;5;12;1,02319721173;False;left;1,9;0,0;-1;both;0,0
ACR94m;2017-05-30-13-09-02;5;13;1,17946344245;True;both;1,1;-0,15;1;neither;0,0
ACR94m;2017-05-30-13-09-02;5;14;0,992608926098;False;right;1,7;-0,15;1;neither;0,0
ACR94m;2017-05-30-13-09-02;5;15;0,850146351705;True;right;1,3;0,0;1;neither;0,0
ACR94m;2017-05-30-13-09-02;5;16;0,843188799945;False;neither;1,9;0,0;1;neither;0,0
ACR94m;2017-05-30-13-09-02;5;17;1,0610414244;True;right;1,9;0,15;-1;neither;0,0
ACR94m;2017-05-30-13-09-02;5;18;0,898309745891;False;both;1,1;0,0;1;neither;0,0
ACR94m;2017-05-30-13-09-02;5;19;0,807427819181;True;left;1,9;-0,15;-1;neither;0,813999891281
ACR94m;2017-05-30-13-09-02;5;20;1,10728161396;False;left;1,5;-0,15;1;both;0,563999891281
ACR94m;2017-05-30-13-09-02;5;21;0,867796493681;True;left;1,1;0,15;1;neither;0,565999984741
ACR94m;2017-05-30-13-09-02;5;22;1,01293273954;False;neither;1,3;-0,15;-1;neither;0,719000101089
ACR94m;2017-05-30-13-09-02;5;23;0,975686616931;True;left;1,1;0,0;-1;neither;0,740000009537
ACR94m;2017-05-30-13-09-02;5;24;0,88283993342;False;neither;1,7;0,0;-1;neither;0,525000095367
ACR94m;2017-05-30-13-09-02;5;25;1,07108430447;True;left;1,5;0,0;1;neither;2,06799983978
ACR94m;2017-05-30-13-09-02;5;26;1,00124661885;False;left;1,3;0,0;1;neither;0,537000179291
ACR94m;2017-05-30-13-09-02;5;27;1,15477478514;True;right;1,3;-0,15;1;neither;0,753000020981
ACR94m;2017-05-30-13-09-02;5;28;0,961271075307;False;both;1,3;0,0;-1;both;0,0
ACR94m;2017-05-30-13-09-02;5;29;1,11535936883;True;left;1,7;0,15;1;neither;0,81200003624
ACR94m;2017-05-30-13-09-02;5;30;1,02909565422;False;right;1,1;0,0;1;neither;0,526000022888
ACR94m;2017-05-30-13-09-02;5;31;0,841033186731;True;left;1,7;0,0;-1;neither;0,664000034332
ACR94m;2017-05-30-13-09-02;5;32;1,00534735608;False;left;1,5;-0,15;1;both;1,61600017548
ACR94m;2017-05-30-13-09-02;5;33;0,932215892531;True;neither;1,3;0,15;1;neither;1,71700000763
ACR94m;2017-05-30-13-09-02;5;34;1,18559211722;False;right;1,5;-0,15;1;neither;0,867000102997
ACR94m;2017-05-30-13-09-02;5;35;0,961731364292;True;right;1,3;0,0;-1;both;0,797999858856
ACR94m;2017-05-30-13-09-02;5;36;0,821261044795;False;both;1,7;0,15;1;neither;1,18099999428
ACR94m;2017-05-30-13-09-02;5;37;0,917226750153;True;right;1,9;0,0;-1;neither;0,896000146866
ACR94m;2017-05-30-13-09-02;5;38;0,998063907654;False;left;1,5;0,15;-1;neither;1,03500008583
ACR94m;2017-05-30-13-09-02;5;39;1,04434407934;True;left;1,1;0,0;1;neither;0,815999984741
ACR94m;2017-05-30-13-09-02;5;40;1,0052683209;False;left;1,7;0,0;1;neither;0,680000066757
ACR94m;2017-05-30-13-09-02;5;41;1,08388086574;True;both;1,7;0,0;-1;neither;0,906000137329
ACR94m;2017-05-30-13-09-02;5;42;0,835914652956;False;neither;1,5;0,15;1;neither;6,1130001545
ACR94m;2017-05-30-13-09-02;5;43;1,0977081144;True;neither;1,7;0,15;-1;neither;0,84299993515
ACR94m;2017-05-30-13-09-02;5;44;1,0778219729;False;right;1,7;0,0;-1;neither;0,759999990463
ACR94m;2017-05-30-13-09-02;5;45;0,937512169681;True;right;1,5;0,0;-1;both;0,418000221252
ACR94m;2017-05-30-13-09-02;6;1;1,18019238327;False;left;1,5;0,0;-1;neither;0,592000007629
ACR94m;2017-05-30-13-09-02;6;2;1,12884836748;True;left;1,3;0,15;1;both;2,47300004959
ACR94m;2017-05-30-13-09-02;6;3;0,942453017834;False;right;1,1;-0,15;1;neither;0,961000204086
ACR94m;2017-05-30-13-09-02;6;4;0,917167143372;True;both;1,3;0,15;1;neither;0,953999996185
ACR94m;2017-05-30-13-09-02;6;5;0,894286279929;False;right;1,9;0,15;-1;neither;6,05900001526
ACR94m;2017-05-30-13-09-02;6;6;1,17749400566;True;right;1,3;0,15;1;neither;1,00100016594
ACR94m;2017-05-30-13-09-02;6;7;1,04153043169;False;neither;1,7;-0,15;1;neither;0,770999908447
ACR94m;2017-05-30-13-09-02;6;8;0,990980744319;True;both;1,9;0,0;1;neither;0,000999927520752
ACR94m;2017-05-30-13-09-02;6;9;0,821617734758;False;left;1,7;-0,15;1;neither;0,712999820709
ACR94m;2017-05-30-13-09-02;6;10;0,935838857653;True;right;1,3;-0,15;-1;neither;0,53200006485
ACR94m;2017-05-30-13-09-02;6;11;1,14262061408;False;right;1,7;-0,15;1;neither;0,959999799728
ACR94m;2017-05-30-13-09-02;6;12;0,870009355624;True;left;1,9;0,0;-1;neither;2,07500004768
ACR94m;2017-05-30-13-09-02;6;13;0,967432240048;False;both;1,1;-0,15;1;neither;0,0
ACR94m;2017-05-30-13-09-02;6;14;1,14701025482;True;right;1,7;-0,15;-1;neither;0,0
ACR94m;2017-05-30-13-09-02;6;15;1,12411194912;False;right;1,3;0,0;1;neither;0,0
ACR94m;2017-05-30-13-09-02;6;16;0,907594727482;True;neither;1,9;0,0;1;neither;0,0
ACR94m;2017-05-30-13-09-02;6;17;1,14735883834;False;right;1,9;0,15;1;neither;0,0
ACR94m;2017-05-30-13-09-02;6;18;0,842792892302;True;both;1,1;0,0;-1;neither;0,0
ACR94m;2017-05-30-13-09-02;6;19;1,05838179424;False;left;1,9;-0,15;1;neither;0,0
ACR94m;2017-05-30-13-09-02;6;20;1,03413599849;True;left;1,5;-0,15;1;neither;0,0
ACR94m;2017-05-30-13-09-02;6;21;1,01260598423;False;left;1,1;0,15;-1;neither;0,0
ACR94m;2017-05-30-13-09-02;6;22;0,915956358272;True;neither;1,3;-0,15;-1;neither;0,0
ACR94m;2017-05-30-13-09-02;6;23;0,852976342452;False;left;1,1;0,0;1;neither;0,0
ACR94m;2017-05-30-13-09-02;6;24;0,96598129352;True;neither;1,7;0,0;1;neither;0,0
ACR94m;2017-05-30-13-09-02;6;25;1,05309758162;False;left;1,5;0,0;-1;neither;0,0
ACR94m;2017-05-30-13-09-02;6;26;0,868560564139;True;left;1,3;0,0;-1;neither;0,0
ACR94m;2017-05-30-13-09-02;6;27;0,916277426641;False;right;1,3;-0,15;-1;neither;0,000999927520752
ACR94m;2017-05-30-13-09-02;6;28;0,999231258245;True;both;1,3;0,0;-1;neither;0,0
ACR94m;2017-05-30-13-09-02;6;29;0,868079723925;False;left;1,7;0,15;1;neither;0,0
ACR94m;2017-05-30-13-09-02;6;30;1,00325291918;True;right;1,1;0,0;-1;neither;0,0
ACR94m;2017-05-30-13-09-02;6;31;1,09327215356;False;left;1,7;0,0;-1;neither;0,0
ACR94m;2017-05-30-13-09-02;6;32;0,881367336712;True;left;1,5;-0,15;-1;neither;0,000999927520752
ACR94m;2017-05-30-13-09-02;6;33;1,06708573162;False;neither;1,3;0,15;1;neither;0,0
ACR94m;2017-05-30-13-09-02;6;34;1,04151622948;True;right;1,5;-0,15;-1;neither;0,55999994278
ACR94m;2017-05-30-13-09-02;6;35;1,05322698553;False;right;1,3;0,0;-1;neither;0,743999958038
ACR94m;2017-05-30-13-09-02;6;36;0,953505803518;True;both;1,7;0,15;1;neither;1,42899990082
ACR94m;2017-05-30-13-09-02;6;37;0,992129812154;False;right;1,9;0,0;1;neither;0,717000007629
ACR94m;2017-05-30-13-09-02;6;38;0,806842737996;True;left;1,5;0,15;1;neither;1,6819999218
ACR94m;2017-05-30-13-09-02;6;39;1,06456804666;False;left;1,1;0,0;1;neither;0,5640001297
ACR94m;2017-05-30-13-09-02;6;40;0,985048971711;True;left;1,7;0,0;1;neither;2,6400001049
ACR94m;2017-05-30-13-09-02;6;41;0,966793704473;False;both;1,7;0,0;1;neither;0,744999885559
ACR94m;2017-05-30-13-09-02;6;42;1,13292962096;True;neither;1,5;0,15;-1;neither;0,531000137329
ACR94m;2017-05-30-13-09-02;6;43;0,985651747999;False;neither;1,7;0,15;-1;neither;0,536999940872
ACR94m;2017-05-30-13-09-02;6;44;0,923530746298;True;right;1,7;0,0;1;neither;0,542999982834
ACR94m;2017-05-30-13-09-02;6;45;0,95785063294;False;right;1,5;0,0;-1;neither;0,521999835968
ACR94m;2017-05-30-13-09-02;7;1;1,17839635606;True;left;1,7;0,15;1;neither;0,577000141144
ACR94m;2017-05-30-13-09-02;7;2;0,885549021276;False;right;1,3;-0,15;-1;neither;0,702999830246
ACR94m;2017-05-30-13-09-02;7;3;1,17912736256;True;left;1,9;-0,15;-1;neither;0,505000114441
ACR94m;2017-05-30-13-09-02;7;4;1,15741549196;False;right;1,9;-0,15;1;neither;0,572000026703
ACR94m;2017-05-30-13-09-02;7;5;0,863011030078;True;neither;1,9;-0,15;-1;neither;0,646000146866
ACR94m;2017-05-30-13-09-02;7;6;0,830873091015;False;both;1,5;0,15;-1;neither;0,519000053406
ACR94m;2017-05-30-13-09-02;7;7;1,16184770305;True;right;1,1;0,0;1;neither;0,537999868393
ACR94m;2017-05-30-13-09-02;7;8;1,11004572427;False;left;1,1;0,15;1;neither;0,530000209808
ACR94m;2017-05-30-13-09-02;7;9;1,12756835812;True;right;1,9;0,0;-1;neither;0,411000013351
ACR94m;2017-05-30-13-09-02;7;10;0,902568196929;False;right;1,5;0,0;1;neither;0,0
ACR94m;2017-05-30-13-09-02;7;11;1,01303881128;True;right;1,3;0,0;-1;neither;0,0
ACR94m;2017-05-30-13-09-02;7;12;0,93369067057;False;left;1,7;-0,15;1;neither;0,0
ACR94m;2017-05-30-13-09-02;7;13;1,17645103548;True;left;1,1;0,15;1;neither;0,0
ACR94m;2017-05-30-13-09-02;7;14;0,883060023356;False;neither;1,3;0,0;1;neither;0,0
ACR94m;2017-05-30-13-09-02;7;15;0,939740213318;True;right;1,5;0,0;1;neither;0,0
ACR94m;2017-05-30-13-09-02;7;16;1,04325939597;False;right;1,1;0,15;1;neither;0,0
ACR94m;2017-05-30-13-09-02;7;17;0,939287091698;True;right;1,5;0,15;1;neither;0,000999927520752
ACR94m;2017-05-30-13-09-02;7;18;0,855994309928;False;right;1,7;0,0;-1;neither;0,0
ACR94m;2017-05-30-13-09-02;7;19;0,818969617108;True;left;1,5;0,15;-1;neither;0,0
ACR94m;2017-05-30-13-09-02;7;20;1,19676941063;False;right;1,9;-0,15;-1;both;0,0
ACR94m;2017-05-30-13-09-02;7;21;1,08206048322;True;left;1,1;0,0;-1;neither;0,0
ACR94m;2017-05-30-13-09-02;7;22;0,880918933583;False;right;1,7;-0,15;-1;neither;0,0
ACR94m;2017-05-30-13-09-02;7;23;1,07907126392;True;right;1,7;0,15;-1;both;0,0
ACR94m;2017-05-30-13-09-02;7;24;1,15342432297;False;both;1,9;-0,15;-1;neither;0,776000022888
ACR94m;2017-05-30-13-09-02;7;25;1,08775072844;True;right;1,1;0,0;-1;neither;1,52200007439
ACR94m;2017-05-30-13-09-02;7;26;0,967554092113;False;both;1,5;-0,15;-1;neither;0,578999996185
ACR94m;2017-05-30-13-09-02;7;27;1,14921584985;True;right;1,5;-0,15;-1;neither;0,802999973297
ACR94m;2017-05-30-13-09-02;7;28;1,10324708757;False;neither;1,3;0,15;-1;neither;1,00499987602
ACR94m;2017-05-30-13-09-02;7;29;0,911666832011;True;left;1,9;0,15;-1;neither;0,557000160217
ACR94m;2017-05-30-13-09-02;7;30;0,803547734445;False;left;1,5;-0,15;1;neither;2,9350001812
ACR94m;2017-05-30-13-09-02;7;31;0,958775246783;True;left;1,5;0,0;1;neither;0,781000137329
ACR94m;2017-05-30-13-09-02;7;32;0,892348971351;False;neither;1,7;0,15;-1;neither;3,72799992561
ACR94m;2017-05-30-13-09-02;7;33;0,822072707;True;right;1,9;0,0;-1;neither;1,97600007057
ACR94m;2017-05-30-13-09-02;7;34;0,9618386797;False;left;1,3;0,15;1;neither;0,805999994278
ACR94m;2017-05-30-13-09-02;7;35;0,973938323014;True;both;1,5;0,0;-1;neither;0,684000015259
ACR94m;2017-05-30-13-09-02;7;36;0,845354103475;False;left;1,3;0,0;1;neither;0,743000030518
ACR94m;2017-05-30-13-09-02;7;37;0,996480841893;True;right;1,7;0,0;-1;neither;0,539000034332
ACR94m;2017-05-30-13-09-02;7;38;1,10118915817;False;right;1,3;-0,15;-1;neither;0,536999940872
ACR94m;2017-05-30-13-09-02;7;39;1,01177122585;True;left;1,5;-0,15;1;neither;0,559000015259
ACR94m;2017-05-30-13-09-02;7;40;0,892293104218;False;neither;1,9;0,15;-1;neither;0,515000104904
ACR94m;2017-05-30-13-09-02;7;41;0,978148294437;True;neither;1,5;0,0;1;neither;0,611000061035
ACR94m;2017-05-30-13-09-02;7;42;0,974448830473;False;left;1,3;-0,15;-1;neither;0,695000171661
ACR94m;2017-05-30-13-09-02;7;43;0,981165088559;True;right;1,9;0,15;1;neither;0,601999998093
ACR94m;2017-05-30-13-09-02;7;44;1,1071318521;False;left;1,9;0,15;1;neither;0,756000041962
ACR94m;2017-05-30-13-09-02;7;45;1,01535402709;True;both;1,7;0,15;-1;neither;0,575000047684
ACR94m;2017-05-30-13-09-02;8;1;0,833575590823;False;left;1,7;0,15;1;neither;0,585000038147
ACR94m;2017-05-30-13-09-02;8;2;0,930302770652;True;right;1,3;-0,15;-1;neither;0,542000055313
ACR94m;2017-05-30-13-09-02;8;3;0,813380791617;False;left;1,9;-0,15;-1;neither;0,483000040054
ACR94m;2017-05-30-13-09-02;8;4;1,10731159429;True;right;1,9;-0,15;-1;neither;0,46799993515
ACR94m;2017-05-30-13-09-02;8;5;1,0451043092;False;neither;1,9;-0,15;1;neither;0,365000009537
ACR94m;2017-05-30-13-09-02;8;6;0,904818961044;True;both;1,5;0,15;-1;neither;0,569000005722
ACR94m;2017-05-30-13-09-02;8;7;0,878309432902;False;right;1,1;0,0;1;both;0,455000162125
ACR94m;2017-05-30-13-09-02;8;8;1,18429484168;True;left;1,1;0,15;-1;neither;0,510999917984
ACR94m;2017-05-30-13-09-02;8;9;1,05174079059;False;right;1,9;0,0;-1;neither;0,496000051498
ACR94m;2017-05-30-13-09-02;8;10;0,871755938854;True;right;1,5;0,0;1;neither;0,424999952316
ACR94m;2017-05-30-13-09-02;8;11;1,19040705543;False;right;1,3;0,0;-1;neither;0,469000101089
ACR94m;2017-05-30-13-09-02;8;12;1,13996242952;True;left;1,7;-0,15;1;neither;0,492000102997
ACR94m;2017-05-30-13-09-02;8;13;0,865763094755;False;left;1,1;0,15;1;neither;0,543999910355
ACR94m;2017-05-30-13-09-02;8;14;0,813871433463;True;neither;1,3;0,0;1;neither;0,713000059128
ACR94m;2017-05-30-13-09-02;8;15;0,883283173632;False;right;1,5;0,0;1;neither;0,72400021553
ACR94m;2017-05-30-13-09-02;8;16;0,85701111094;True;right;1,1;0,15;-1;neither;0,717000007629
ACR94m;2017-05-30-13-09-02;8;17;0,907331833017;False;right;1,5;0,15;-1;neither;0,56200003624
ACR94m;2017-05-30-13-09-02;8;18;0,898334710062;True;right;1,7;0,0;1;neither;0,624000072479
ACR94m;2017-05-30-13-09-02;8;19;1,04035102652;False;left;1,5;0,15;-1;neither;0,709000110626
ACR94m;2017-05-30-13-09-02;8;20;0,954106821447;True;right;1,9;-0,15;-1;neither;0,631999969482
ACR94m;2017-05-30-13-09-02;8;21;1,02079205199;False;left;1,1;0,0;1;neither;0,550999879837
ACR94m;2017-05-30-13-09-02;8;22;0,997999330961;True;right;1,7;-0,15;-1;neither;0,631000041962
ACR94m;2017-05-30-13-09-02;8;23;0,926939934641;False;right;1,7;0,15;1;neither;0,595999956131
ACR94m;2017-05-30-13-09-02;8;24;0,855848768368;True;both;1,9;-0,15;1;neither;0,654000043869
ACR94m;2017-05-30-13-09-02;8;25;1,06836897347;False;right;1,1;0,0;-1;neither;0,5640001297
ACR94m;2017-05-30-13-09-02;8;26;1,02692911034;True;both;1,5;-0,15;-1;neither;1,38499999046
ACR94m;2017-05-30-13-09-02;8;27;0,825935129764;False;right;1,5;-0,15;-1;neither;0,65900015831
ACR94m;2017-05-30-13-09-02;8;28;1,03398552683;True;neither;1,3;0,15;-1;neither;0,78200006485
ACR94m;2017-05-30-13-09-02;8;29;1,12551356695;False;left;1,9;0,15;1;neither;0,575000047684
ACR94m;2017-05-30-13-09-02;8;30;1,00786967807;True;left;1,5;-0,15;-1;neither;0,668999910355
ACR94m;2017-05-30-13-09-02;8;31;0,966319574369;False;left;1,5;0,0;1;neither;0,491999864578
ACR94m;2017-05-30-13-09-02;8;32;0,9488967797;True;neither;1,7;0,15;1;neither;0,631999969482
ACR94m;2017-05-30-13-09-02;8;33;1,06807408896;False;right;1,9;0,0;1;neither;0,596999883652
ACR94m;2017-05-30-13-09-02;8;34;0,909206153666;True;left;1,3;0,15;1;neither;0,423999786377
ACR94m;2017-05-30-13-09-02;8;35;1,15908149957;False;both;1,5;0,0;1;neither;0,522000074387
ACR94m;2017-05-30-13-09-02;8;36;1,08412484398;True;left;1,3;0,0;1;neither;0,601000070572
ACR94m;2017-05-30-13-09-02;8;37;0,938977389652;False;right;1,7;0,0;1;neither;0,542999982834
ACR94m;2017-05-30-13-09-02;8;38;1,13259141535;True;right;1,3;-0,15;-1;neither;0,469999790192
ACR94m;2017-05-30-13-09-02;8;39;0,980382352304;False;left;1,5;-0,15;1;neither;0,545000076294
ACR94m;2017-05-30-13-09-02;8;40;1,10529965701;True;neither;1,9;0,15;-1;neither;0,599999904633
ACR94m;2017-05-30-13-09-02;8;41;1,01230996565;False;neither;1,5;0,0;1;neither;0,556999921799
ACR94m;2017-05-30-13-09-02;8;42;1,12379611922;True;left;1,3;-0,15;-1;both;0,516000032425
ACR94m;2017-05-30-13-09-02;8;43;1,11451402783;False;right;1,9;0,15;1;neither;0,0
ACR94m;2017-05-30-13-09-02;8;44;0,8694581306;True;left;1,9;0,15;-1;neither;0,0
ACR94m;2017-05-30-13-09-02;8;45;0,8887230047;False;both;1,7;0,15;-1;neither;0,0
ACR94m;2017-05-30-13-09-02;9;1;1,0946668186;True;both;1,1;-0,15;1;neither;0,463000059128
ACR94m;2017-05-30-13-09-02;9;2;0,886849492294;False;left;1,3;-0,15;1;neither;0,549000024796
ACR94m;2017-05-30-13-09-02;9;3;0,933748971841;True;neither;1,9;0,0;1;neither;0,390000104904
ACR94m;2017-05-30-13-09-02;9;4;0,995307188972;False;neither;1,7;0,15;-1;neither;0,56200003624
ACR94m;2017-05-30-13-09-02;9;5;0,955873840644;True;left;1,9;0,0;-1;neither;0,410000085831
ACR94m;2017-05-30-13-09-02;9;6;0,871325126619;False;left;1,1;0,0;1;neither;0,611999988556
ACR94m;2017-05-30-13-09-02;9;7;1,16945957336;True;left;1,9;0,15;1;neither;0,682000160217
ACR94m;2017-05-30-13-09-02;9;8;1,12604236068;False;both;1,5;-0,15;1;neither;0,577000141144
ACR94m;2017-05-30-13-09-02;9;9;0,924950884649;True;right;1,3;0,15;1;neither;0,575999975204
ACR94m;2017-05-30-13-09-02;9;10;0,915686806512;False;left;1,3;0,0;1;neither;0,813999891281
ACR94m;2017-05-30-13-09-02;9;11;1,19962575849;True;left;1,1;0,15;-1;neither;0,808000087738
ACR94m;2017-05-30-13-09-02;9;12;0,827317153501;False;left;1,5;0,0;-1;neither;0,0
ACR94m;2017-05-30-13-09-02;9;13;1,1277611108;True;left;1,9;-0,15;1;neither;0,488999843597
ACR94m;2017-05-30-13-09-02;9;14;0,953061685019;False;right;1,5;-0,15;-1;neither;0,380000114441
ACR94m;2017-05-30-13-09-02;9;15;1,01341891038;True;right;1,3;0,0;1;neither;0,34299993515
ACR94m;2017-05-30-13-09-02;9;16;1,00794316508;False;left;1,1;0,15;1;neither;0,492000102997
ACR94m;2017-05-30-13-09-02;9;17;1,07153118251;True;neither;1,5;-0,15;-1;neither;0,542999982834
ACR94m;2017-05-30-13-09-02;9;18;1,19633870867;False;neither;1,7;-0,15;-1;neither;0,454999923706
ACR94m;2017-05-30-13-09-02;9;19;1,12682690382;True;right;1,7;0,0;1;neither;0,320000171661
ACR94m;2017-05-30-13-09-02;9;20;0,816937967286;False;both;1,7;-0,15;-1;neither;0,743000030518
ACR94m;2017-05-30-13-09-02;9;21;0,887925564821;True;both;1,5;0,15;-1;neither;0,470999956131
ACR94m;2017-05-30-13-09-02;9;22;1,16722953619;False;right;1,5;0,15;1;neither;0,530000209808
ACR94m;2017-05-30-13-09-02;9;23;1,19286991992;True;neither;1,1;0,0;-1;neither;0,369999885559
ACR94m;2017-05-30-13-09-02;9;24;1,0496205723;False;right;1,5;0,0;-1;neither;0,435000181198
ACR94m;2017-05-30-13-09-02;9;25;1,14835387302;True;left;1,7;0,0;1;neither;0,467000007629
ACR94m;2017-05-30-13-09-02;9;26;0,949686433488;False;both;1,3;-0,15;1;neither;0,550000190735
ACR94m;2017-05-30-13-09-02;9;27;0,931994921322;True;right;1,3;0,0;1;neither;0,476999998093
ACR94m;2017-05-30-13-09-02;9;28;1,07923203131;False;right;1,7;-0,15;1;neither;0,514999866486
ACR94m;2017-05-30-13-09-02;9;29;1,17082380213;True;right;1,9;-0,15;1;neither;0,571999788284
ACR94m;2017-05-30-13-09-02;9;30;1,19655031699;False;right;1,5;-0,15;1;neither;0,603999853134
ACR94m;2017-05-30-13-09-02;9;31;0,966076109456;True;left;1,9;0,0;1;neither;0,649999856949
ACR94m;2017-05-30-13-09-02;9;32;0,932389930098;False;left;1,1;0,0;1;neither;0,911000013351
ACR94m;2017-05-30-13-09-02;9;33;0,90454516834;True;neither;1,1;-0,15;-1;neither;0,528000116348
ACR94m;2017-05-30-13-09-02;9;34;0,899190221782;False;right;1,9;0,0;-1;neither;0,6859998703
ACR94m;2017-05-30-13-09-02;9;35;0,996950420016;True;right;1,7;0,0;-1;neither;0,715000152588
ACR94m;2017-05-30-13-09-02;9;36;0,921759929409;False;both;1,9;0,15;-1;neither;0,501999855042
ACR94m;2017-05-30-13-09-02;9;37;0,962661344281;True;neither;1,9;-0,15;-1;neither;0,334000110626
ACR94m;2017-05-30-13-09-02;9;38;1,14681836775;False;left;1,7;0,0;1;neither;0,424000024796
ACR94m;2017-05-30-13-09-02;9;39;1,15160958478;True;both;1,3;0,0;-1;neither;0,525000095367
ACR94m;2017-05-30-13-09-02;9;40;1,07738748;False;left;1,3;0,0;-1;neither;0,455999851227
ACR94m;2017-05-30-13-09-02;9;41;0,897496130039;True;right;1,9;-0,15;-1;neither;1,14100003242
ACR94m;2017-05-30-13-09-02;9;42;1,04559074004;False;left;1,9;-0,15;-1;neither;0,596999883652
ACR94m;2017-05-30-13-09-02;9;43;0,883609314238;True;left;1,9;0,15;1;neither;1,21199989319
ACR94m;2017-05-30-13-09-02;9;44;0,805359956279;False;neither;1,3;0,0;-1;neither;0,628999948502
ACR94m;2017-05-30-13-09-02;9;45;0,876721722847;True;right;1,3;0,15;-1;neither;0,595999956131
ACR94m;2017-05-30-13-09-02;10;1;0,822677213526;False;both;1,1;-0,15;1;neither;0,458999872208
ACR94m;2017-05-30-13-09-02;10;2;0,859959496598;True;left;1,3;-0,15;-1;neither;0,496000051498
ACR94m;2017-05-30-13-09-02;10;3;0,913555358308;False;neither;1,9;0,0;-1;neither;0,490000009537
ACR94m;2017-05-30-13-09-02;10;4;1,18744483103;True;neither;1,7;0,15;-1;neither;0,674999952316
ACR94m;2017-05-30-13-09-02;10;5;1,02153859554;False;left;1,9;0,0;1;neither;0,0
ACR94m;2017-05-30-13-09-02;10;6;1,0109743693;True;left;1,1;0,0;1;neither;0,700999975204
ACR94m;2017-05-30-13-09-02;10;7;0,902157799595;False;left;1,9;0,15;1;neither;0,523000001907
ACR94m;2017-05-30-13-09-02;10;8;1,01102671116;True;both;1,5;-0,15;-1;neither;0,556999921799
ACR94m;2017-05-30-13-09-02;10;9;0,813944947024;False;right;1,3;0,15;1;neither;0,545000076294
ACR94m;2017-05-30-13-09-02;10;10;1,118377873;True;left;1,3;0,0;1;neither;0,578000068665
ACR94m;2017-05-30-13-09-02;10;11;1,06508017151;False;left;1,1;0,15;-1;neither;1,11400008202
ACR94m;2017-05-30-13-09-02;10;12;0,956763403056;True;left;1,5;0,0;-1;neither;0,481999874115
ACR94m;2017-05-30-13-09-02;10;13;0,944796173045;False;left;1,9;-0,15;1;neither;0,408999919891
ACR94m;2017-05-30-13-09-02;10;14;0,887484034922;True;right;1,5;-0,15;1;neither;0,496000051498
ACR94m;2017-05-30-13-09-02;10;15;1,10061051954;False;right;1,3;0,0;1;neither;0,493999958038
ACR94m;2017-05-30-13-09-02;10;16;1,0655154043;True;left;1,1;0,15;-1;neither;1,90400004387
ACR94m;2017-05-30-13-09-02;10;17;1,01135281121;False;neither;1,5;-0,15;1;neither;1,65699982643
ACR94m;2017-05-30-13-09-02;10;18;1,00104334692;True;neither;1,7;-0,15;-1;neither;0,571000099182
ACR94m;2017-05-30-13-09-02;10;19;1,02771551033;False;right;1,7;0,0;-1;neither;0,538000106812
ACR94m;2017-05-30-13-09-02;10;20;0,9530171939;True;both;1,7;-0,15;-1;neither;0,912999868393
ACR94m;2017-05-30-13-09-02;10;21;1,14943500225;False;both;1,5;0,15;-1;neither;1,617000103
ACR94m;2017-05-30-13-09-02;10;22;0,94055529879;True;right;1,5;0,15;-1;neither;0,473000049591
ACR94m;2017-05-30-13-09-02;10;23;0,921110902256;False;neither;1,1;0,0;1;neither;0,567000150681
ACR94m;2017-05-30-13-09-02;10;24;0,877479109947;True;right;1,5;0,0;-1;neither;0,65499997139
ACR94m;2017-05-30-13-09-02;10;25;1,18879830921;False;left;1,7;0,0;1;neither;0,927999973297
ACR94m;2017-05-30-13-09-02;10;26;0,95437756954;True;both;1,3;-0,15;-1;neither;1,17700004578
ACR94m;2017-05-30-13-09-02;10;27;1,02417362202;False;right;1,3;0,0;-1;neither;0,56200003624
ACR94m;2017-05-30-13-09-02;10;28;0,914624252778;True;right;1,7;-0,15;1;neither;0,491999864578
ACR94m;2017-05-30-13-09-02;10;29;1,02558527326;False;right;1,9;-0,15;-1;neither;0,457000017166
ACR94m;2017-05-30-13-09-02;10;30;0,971559946894;True;right;1,5;-0,15;1;neither;0,733999967575
ACR94m;2017-05-30-13-09-02;10;31;1,07272674435;False;left;1,9;0,0;1;neither;0,427999973297
ACR94m;2017-05-30-13-09-02;10;32;1,16633590802;True;left;1,1;0,0;1;neither;0,957000017166
ACR94m;2017-05-30-13-09-02;10;33;1,05413548669;False;neither;1,1;-0,15;1;neither;0,467000007629
ACR94m;2017-05-30-13-09-02;10;34;1,18835084434;True;right;1,9;0,0;1;neither;0,506999969482
ACR94m;2017-05-30-13-09-02;10;35;0,883922799804;False;right;1,7;0,0;-1;neither;0,433000087738
ACR94m;2017-05-30-13-09-02;10;36;1,10392621506;True;both;1,9;0,15;-1;neither;0,511000156403
ACR94m;2017-05-30-13-09-02;10;37;1,01254079775;False;neither;1,9;-0,15;-1;neither;0,530000209808
ACR94m;2017-05-30-13-09-02;10;38;1,14909374549;True;left;1,7;0,0;-1;neither;0,964999914169
ACR94m;2017-05-30-13-09-02;10;39;1,07967552275;False;both;1,3;0,0;1;neither;0,453999996185
ACR94m;2017-05-30-13-09-02;10;40;1,19207727925;True;left;1,3;0,0;1;neither;0,726000070572
ACR94m;2017-05-30-13-09-02;10;41;0,86493852828;False;right;1,9;-0,15;-1;neither;3,4390001297
ACR94m;2017-05-30-13-09-02;10;42;0,969321355047;True;left;1,9;-0,15;1;neither;0,496000051498
ACR94m;2017-05-30-13-09-02;10;43;0,991444433754;False;left;1,9;0,15;1;neither;0,598000049591
ACR94m;2017-05-30-13-09-02;10;44;1,16873437517;True;neither;1,3;0,0;1;neither;0,855000019073
ACR94m;2017-05-30-13-09-02;10;45;0,818675246254;False;right;1,3;0,15;1;neither;0,542999982834
