Observer;SessionID;Block;Trial;OnsetDelay;Yellow;Switch;SwitchTime;Gap;Direction;Response;RT
ASA97w;2017-06-01-08-54-22;1;1;0,858909211852;False;left;1,3;-0,15;-1;left;0,891999959946
ASA97w;2017-06-01-08-54-22;1;2;0,935683286947;True;right;1,3;0,0;-1;right;0,536000013351
ASA97w;2017-06-01-08-54-22;1;3;0,896744594766;False;right;1,5;0,0;1;right;0,479000091553
ASA97w;2017-06-01-08-54-22;1;4;1,15701038772;True;right;1,7;0,0;-1;right;0,513999938965
ASA97w;2017-06-01-08-54-22;1;5;0,874360860482;False;neither;1,9;-0,15;1;neither;0,683000087738
ASA97w;2017-06-01-08-54-22;1;6;0,943955168076;True;left;1,7;-0,15;1;left;0,350999832153
ASA97w;2017-06-01-08-54-22;1;7;0,935575430417;False;both;1,9;-0,15;1;both;0,370000123978
ASA97w;2017-06-01-08-54-22;1;8;1,02749331469;True;neither;1,3;-0,15;1;neither;0,475999832153
ASA97w;2017-06-01-08-54-22;1;9;0,851785969718;False;neither;1,3;0,0;-1;neither;0,757999897003
ASA97w;2017-06-01-08-54-22;1;10;1,0486386775;True;left;1,5;0,15;1;left;0,384999990463
ASA97w;2017-06-01-08-54-22;1;11;1,04321603259;False;right;1,7;0,0;1;right;0,440999984741
ASA97w;2017-06-01-08-54-22;1;12;0,844723299346;True;right;1,7;-0,15;-1;right;0,432999849319
ASA97w;2017-06-01-08-54-22;1;13;1,12420704393;False;left;1,1;-0,15;-1;left;0,351999998093
ASA97w;2017-06-01-08-54-22;1;14;0,873285908551;True;both;1,7;0,15;1;both;0,3140001297
ASA97w;2017-06-01-08-54-22;1;15;1,04498253732;False;right;1,5;0,15;-1;right;0,291000127792
ASA97w;2017-06-01-08-54-22;1;16;0,859701723398;True;left;1,7;0,15;-1;left;0,375999927521
ASA97w;2017-06-01-08-54-22;1;17;1,01345956712;False;right;1,9;-0,15;-1;right;0,852999925613
ASA97w;2017-06-01-08-54-22;1;18;1,0078654906;True;left;1,3;0,15;1;left;0,335999965668
ASA97w;2017-06-01-08-54-22;1;19;0,869463700919;False;neither;1,9;0,0;1;both;0,68499994278
ASA97w;2017-06-01-08-54-22;1;20;1,02359227654;True;right;1,9;-0,15;-1;neither;0,0
ASA97w;2017-06-01-08-54-22;1;21;1,18273257509;False;right;1,9;0,15;1;right;0,0
ASA97w;2017-06-01-08-54-22;1;22;1,09545831103;True;left;1,3;-0,15;1;right;0,0
ASA97w;2017-06-01-08-54-22;1;23;1,01676370603;False;left;1,9;0,15;-1;both;0,0
ASA97w;2017-06-01-08-54-22;1;24;1,07714653818;True;neither;1,7;0,0;-1;neither;0,0
ASA97w;2017-06-01-08-54-22;1;25;0,961989039875;False;right;1,9;0,0;1;neither;0,0
ASA97w;2017-06-01-08-54-22;1;26;1,15444230263;True;left;1,7;0,0;-1;right;0,0
ASA97w;2017-06-01-08-54-22;1;27;0,879824586465;False;neither;1,9;0,15;-1;neither;0,0
ASA97w;2017-06-01-08-54-22;1;28;1,05057919631;True;left;1,7;0,15;-1;neither;0,00100016593933
ASA97w;2017-06-01-08-54-22;1;29;0,82085710137;False;right;1,3;-0,15;-1;neither;0,0
ASA97w;2017-06-01-08-54-22;1;30;1,07660238926;True;right;1,1;0,15;-1;neither;0,0
ASA97w;2017-06-01-08-54-22;1;31;1,02341858585;False;left;1,5;-0,15;1;neither;0,0
ASA97w;2017-06-01-08-54-22;1;32;1,12142658217;True;both;1,9;0,0;1;neither;0,0
ASA97w;2017-06-01-08-54-22;1;33;1,09601676386;False;right;1,1;-0,15;1;both;0,0
ASA97w;2017-06-01-08-54-22;1;34;1,17852187277;True;right;1,5;-0,15;1;right;0,0
ASA97w;2017-06-01-08-54-22;1;35;0,87701391495;False;right;1,5;0,0;1;neither;0,0
ASA97w;2017-06-01-08-54-22;1;36;0,990402741691;True;left;1,5;-0,15;-1;right;0,000999927520752
ASA97w;2017-06-01-08-54-22;1;37;0,896337063727;False;right;1,3;0,0;1;left;0,0
ASA97w;2017-06-01-08-54-22;1;38;0,86275470444;True;both;1,9;0,15;1;right;0,0
ASA97w;2017-06-01-08-54-22;1;39;0,841747442342;False;both;1,3;-0,15;1;both;0,0
ASA97w;2017-06-01-08-54-22;1;40;1,14349201773;True;right;1,3;-0,15;-1;both;0,0
ASA97w;2017-06-01-08-54-22;1;41;0,976710034204;False;right;1,7;0,15;1;neither;0,000999927520752
ASA97w;2017-06-01-08-54-22;1;42;1,13719904491;True;right;1,9;0,0;-1;right;0,0
ASA97w;2017-06-01-08-54-22;1;43;1,19761056437;False;neither;1,1;0,15;-1;neither;0,0
ASA97w;2017-06-01-08-54-22;1;44;0,83318026947;True;right;1,3;0,15;1;neither;0,00100016593933
ASA97w;2017-06-01-08-54-22;1;45;0,857938165297;False;left;1,9;0,0;1;right;0,0
ASA97w;2017-06-01-08-54-22;2;1;1,16850276246;True;left;1,3;-0,15;-1;neither;0,365000009537
ASA97w;2017-06-01-08-54-22;2;2;1,06667051081;False;right;1,3;0,0;1;right;0,325999975204
ASA97w;2017-06-01-08-54-22;2;3;0,852078632789;True;right;1,5;0,0;-1;right;0,313999891281
ASA97w;2017-06-01-08-54-22;2;4;1,16793861256;False;right;1,7;0,0;-1;right;0,296000003815
ASA97w;2017-06-01-08-54-22;2;5;1,06451076472;True;neither;1,9;-0,15;1;neither;0,467000007629
ASA97w;2017-06-01-08-54-22;2;6;0,976454337662;False;left;1,7;-0,15;-1;neither;0,563000202179
ASA97w;2017-06-01-08-54-22;2;7;1,15077093394;True;both;1,9;-0,15;-1;neither;0,43700003624
ASA97w;2017-06-01-08-54-22;2;8;1,06234720324;False;neither;1,3;-0,15;1;neither;0,467000007629
ASA97w;2017-06-01-08-54-22;2;9;1,00862364391;True;neither;1,3;0,0;-1;neither;0,516000032425
ASA97w;2017-06-01-08-54-22;2;10;0,937844457648;False;left;1,5;0,15;-1;neither;0,322000026703
ASA97w;2017-06-01-08-54-22;2;11;1,00833705319;True;right;1,7;0,0;1;right;0,305999994278
ASA97w;2017-06-01-08-54-22;2;12;1,029159935;False;right;1,7;-0,15;1;right;0,333000183105
ASA97w;2017-06-01-08-54-22;2;13;0,812679355229;True;left;1,1;-0,15;1;neither;0,303999900818
ASA97w;2017-06-01-08-54-22;2;14;1,07915169213;False;both;1,7;0,15;-1;both;0,308000087738
ASA97w;2017-06-01-08-54-22;2;15;0,864970113242;True;right;1,5;0,15;1;right;0,259000062943
ASA97w;2017-06-01-08-54-22;2;16;1,03870845801;False;left;1,7;0,15;-1;neither;0,289000034332
ASA97w;2017-06-01-08-54-22;2;17;1,00804299375;True;right;1,9;-0,15;-1;neither;0,431999921799
ASA97w;2017-06-01-08-54-22;2;18;1,02567753176;False;left;1,3;0,15;1;neither;0,0
ASA97w;2017-06-01-08-54-22;2;19;0,985568615646;True;neither;1,9;0,0;-1;neither;0,378000020981
ASA97w;2017-06-01-08-54-22;2;20;1,07408092287;False;right;1,9;-0,15;-1;right;0,837999820709
ASA97w;2017-06-01-08-54-22;2;21;0,861552303794;True;right;1,9;0,15;1;right;0,296999931335
ASA97w;2017-06-01-08-54-22;2;22;0,86044744157;False;left;1,3;-0,15;1;neither;0,398999929428
ASA97w;2017-06-01-08-54-22;2;23;1,17984069638;True;left;1,9;0,15;1;left;0,249000072479
ASA97w;2017-06-01-08-54-22;2;24;1,04144679019;False;neither;1,7;0,0;1;neither;0,743999958038
ASA97w;2017-06-01-08-54-22;2;25;0,973548968483;True;right;1,9;0,0;-1;right;0,362999916077
ASA97w;2017-06-01-08-54-22;2;26;0,801554524566;False;left;1,7;0,0;-1;left;0,319000005722
ASA97w;2017-06-01-08-54-22;2;27;0,899023433918;True;neither;1,9;0,15;1;neither;0,626000165939
ASA97w;2017-06-01-08-54-22;2;28;0,943350168837;False;left;1,7;0,15;1;neither;0,573000192642
ASA97w;2017-06-01-08-54-22;2;29;0,905593743593;True;right;1,3;-0,15;-1;both;0,478000164032
ASA97w;2017-06-01-08-54-22;2;30;1,12867770878;False;right;1,1;0,15;-1;neither;1,17199993134
ASA97w;2017-06-01-08-54-22;2;31;0,801677973351;True;left;1,5;-0,15;1;both;0,662999868393
ASA97w;2017-06-01-08-54-22;2;32;1,06391995017;False;both;1,9;0,0;1;both;0,397000074387
ASA97w;2017-06-01-08-54-22;2;33;1,19574420983;True;right;1,1;-0,15;-1;both;0,31299996376
ASA97w;2017-06-01-08-54-22;2;34;1,18935075723;False;right;1,5;-0,15;1;right;0,509000062943
ASA97w;2017-06-01-08-54-22;2;35;1,0488030868;True;right;1,5;0,0;1;right;0,34700012207
ASA97w;2017-06-01-08-54-22;2;36;0,92778086461;False;left;1,5;-0,15;-1;neither;0,726000070572
ASA97w;2017-06-01-08-54-22;2;37;1,15978153016;True;right;1,3;0,0;-1;right;0,299000024796
ASA97w;2017-06-01-08-54-22;2;38;0,877188229263;False;both;1,9;0,15;-1;left;0,297000169754
ASA97w;2017-06-01-08-54-22;2;39;1,00744840986;True;both;1,3;-0,15;-1;both;0,270999908447
ASA97w;2017-06-01-08-54-22;2;40;0,93217165982;False;right;1,3;-0,15;-1;right;0,324999809265
ASA97w;2017-06-01-08-54-22;2;41;0,961386717478;True;right;1,7;0,15;1;right;0,369000196457
ASA97w;2017-06-01-08-54-22;2;42;1,08554886047;False;right;1,9;0,0;1;right;0,431999921799
ASA97w;2017-06-01-08-54-22;2;43;1,04506854227;True;neither;1,1;0,15;1;neither;0,322999954224
ASA97w;2017-06-01-08-54-22;2;44;0,851129867997;False;right;1,3;0,15;-1;right;0,266999959946
ASA97w;2017-06-01-08-54-22;2;45;1,04377664975;True;left;1,9;0,0;1;neither;0,726999998093
ASA97w;2017-06-01-08-54-22;3;1;0,869245101706;False;left;1,5;-0,15;1;left;0,369000196457
ASA97w;2017-06-01-08-54-22;3;2;0,80211520719;True;left;1,7;0,15;-1;left;0,356999874115
ASA97w;2017-06-01-08-54-22;3;3;0,967655042199;False;both;1,1;0,15;1;both;0,0820000171661
ASA97w;2017-06-01-08-54-22;3;4;1,19612538821;True;right;1,1;-0,15;-1;right;0,432999849319
ASA97w;2017-06-01-08-54-22;3;5;1,07422534167;False;right;1,9;0,0;-1;right;0,376000165939
ASA97w;2017-06-01-08-54-22;3;6;1,02858397877;True;right;1,3;0,15;1;right;0,280999898911
ASA97w;2017-06-01-08-54-22;3;7;1,10776113171;False;right;1,7;0,15;1;right;0,301000118256
ASA97w;2017-06-01-08-54-22;3;8;1,10037243037;True;neither;1,5;-0,15;1;neither;0,955999851227
ASA97w;2017-06-01-08-54-22;3;9;1,03094302175;False;right;1,7;0,0;1;right;0,469000101089
ASA97w;2017-06-01-08-54-22;3;10;0,827434450661;True;left;1,5;0,15;-1;left;0,309000015259
ASA97w;2017-06-01-08-54-22;3;11;1,06924767499;False;right;1,3;0,15;1;right;0,255999803543
ASA97w;2017-06-01-08-54-22;3;12;1,13705889414;True;left;1,1;0,15;1;left;0,0160000324249
ASA97w;2017-06-01-08-54-22;3;13;0,937100777191;False;left;1,1;0,0;1;left;0,470999956131
ASA97w;2017-06-01-08-54-22;3;14;0,890580591193;True;left;1,3;0,15;-1;left;0,376999855042
ASA97w;2017-06-01-08-54-22;3;15;0,891348441367;False;right;1,5;-0,15;1;right;0,319000005722
ASA97w;2017-06-01-08-54-22;3;16;1,11397129756;True;right;1,1;0,15;-1;right;0,270999908447
ASA97w;2017-06-01-08-54-22;3;17;0,959209975994;False;right;1,1;-0,15;1;right;0,390000104904
ASA97w;2017-06-01-08-54-22;3;18;1,18812412915;True;right;1,9;0,15;-1;right;0,330999851227
ASA97w;2017-06-01-08-54-22;3;19;0,840617810492;False;left;1,9;0,15;1;left;0,398000001907
ASA97w;2017-06-01-08-54-22;3;20;1,06258984842;True;left;1,1;-0,15;-1;left;0,0
ASA97w;2017-06-01-08-54-22;3;21;1,04132128555;False;neither;1,3;-0,15;1;neither;0,416000127792
ASA97w;2017-06-01-08-54-22;3;22;1,12397448269;True;left;1,9;-0,15;-1;neither;0,549000024796
ASA97w;2017-06-01-08-54-22;3;23;0,814762610085;False;both;1,1;0,0;1;both;0,369999885559
ASA97w;2017-06-01-08-54-22;3;24;0,835495033163;True;right;1,3;-0,15;-1;right;0,319000005722
ASA97w;2017-06-01-08-54-22;3;25;0,898746940919;False;both;1,9;0,15;1;both;0,399000167847
ASA97w;2017-06-01-08-54-22;3;26;1,11886254168;True;both;1,9;-0,15;1;both;0,655999898911
ASA97w;2017-06-01-08-54-22;3;27;1,01975554068;False;both;1,5;0,15;-1;both;0,359999895096
ASA97w;2017-06-01-08-54-22;3;28;0,812569872955;True;right;1,3;0,0;-1;right;0,473999977112
ASA97w;2017-06-01-08-54-22;3;29;1,03835354048;False;left;1,3;0,0;1;left;0,381999969482
ASA97w;2017-06-01-08-54-22;3;30;1,04803155975;True;left;1,9;0,15;1;left;0,46599984169
ASA97w;2017-06-01-08-54-22;3;31;1,02590370082;False;right;1,7;-0,15;-1;neither;1,19999980927
ASA97w;2017-06-01-08-54-22;3;32;0,949083424369;True;left;1,1;0,15;1;left;0,384000062943
ASA97w;2017-06-01-08-54-22;3;33;1,12142919707;False;left;1,7;-0,15;-1;left;0,361000061035
ASA97w;2017-06-01-08-54-22;3;34;0,808842956046;True;left;1,3;-0,15;1;left;0,292999982834
ASA97w;2017-06-01-08-54-22;3;35;0,856448330985;False;neither;1,1;0,15;1;neither;0,662999868393
ASA97w;2017-06-01-08-54-22;3;36;1,02964765804;True;neither;1,7;0,15;1;neither;0,503000020981
ASA97w;2017-06-01-08-54-22;3;37;0,927021525522;False;both;1,7;0,15;-1;left;0,723000049591
ASA97w;2017-06-01-08-54-22;3;38;0,811475923847;True;neither;1,5;0,15;1;both;0,0
ASA97w;2017-06-01-08-54-22;3;39;1,06571783045;False;right;1,5;0,15;-1;neither;0,000999927520752
ASA97w;2017-06-01-08-54-22;3;40;0,877428166083;True;right;1,5;-0,15;1;right;0,0
ASA97w;2017-06-01-08-54-22;3;41;0,857137595068;False;left;1,3;0,0;1;neither;0,0
ASA97w;2017-06-01-08-54-22;3;42;0,810970499598;True;right;1,1;0,0;-1;neither;0,0
ASA97w;2017-06-01-08-54-22;3;43;1,02136855422;False;left;1,7;0,0;1;right;0,0
ASA97w;2017-06-01-08-54-22;3;44;0,90085714897;True;neither;1,9;0,0;-1;neither;0,0
ASA97w;2017-06-01-08-54-22;3;45;1,07167767951;False;left;1,7;-0,15;1;neither;0,0
ASA97w;2017-06-01-08-54-22;4;1;0,862682942513;True;left;1,5;-0,15;1;neither;0,3140001297
ASA97w;2017-06-01-08-54-22;4;2;0,872070385584;False;left;1,7;0,15;-1;neither;0,374000072479
ASA97w;2017-06-01-08-54-22;4;3;1,16212479889;True;both;1,1;0,15;1;both;0,269999980927
ASA97w;2017-06-01-08-54-22;4;4;0,89660573099;False;right;1,1;-0,15;-1;neither;0,302000045776
ASA97w;2017-06-01-08-54-22;4;5;0,947197459124;True;right;1,9;0,0;-1;right;0,332999944687
ASA97w;2017-06-01-08-54-22;4;6;1,17745144245;False;right;1,3;0,15;1;right;0,27899980545
ASA97w;2017-06-01-08-54-22;4;7;1,09125290563;True;right;1,7;0,15;1;right;0,0209999084473
ASA97w;2017-06-01-08-54-22;4;8;0,922808210383;False;neither;1,5;-0,15;-1;neither;0,340000152588
ASA97w;2017-06-01-08-54-22;4;9;1,11714243499;True;right;1,7;0,0;1;right;0,305999994278
ASA97w;2017-06-01-08-54-22;4;10;1,07272229211;False;left;1,5;0,15;-1;left;0,298000097275
ASA97w;2017-06-01-08-54-22;4;11;0,95336358615;True;right;1,3;0,15;-1;neither;0,385999917984
ASA97w;2017-06-01-08-54-22;4;12;1,1727452773;False;left;1,1;0,15;1;left;0,240000009537
ASA97w;2017-06-01-08-54-22;4;13;1,12076402755;True;left;1,1;0,0;-1;left;0,3109998703
ASA97w;2017-06-01-08-54-22;4;14;0,972136298132;False;left;1,3;0,15;1;neither;0,290999889374
ASA97w;2017-06-01-08-54-22;4;15;0,861616153253;True;right;1,5;-0,15;-1;neither;0,0900001525879
ASA97w;2017-06-01-08-54-22;4;16;1,15504387037;False;right;1,1;0,15;1;right;0,295000076294
ASA97w;2017-06-01-08-54-22;4;17;0,905236100682;True;right;1,1;-0,15;-1;both;0,976999998093
ASA97w;2017-06-01-08-54-22;4;18;1,10579289183;False;right;1,9;0,15;-1;right;0,368000030518
ASA97w;2017-06-01-08-54-22;4;19;1,15021083061;True;left;1,9;0,15;1;left;0,411999940872
ASA97w;2017-06-01-08-54-22;4;20;1,002419532;False;left;1,1;-0,15;1;neither;0,332000017166
ASA97w;2017-06-01-08-54-22;4;21;0,977938977016;True;neither;1,3;-0,15;1;neither;1,03099989891
ASA97w;2017-06-01-08-54-22;4;22;0,935134601938;False;left;1,9;-0,15;1;both;0,526000022888
ASA97w;2017-06-01-08-54-22;4;23;0,824235674282;True;both;1,1;0,0;1;both;0,302999973297
ASA97w;2017-06-01-08-54-22;4;24;0,902945537773;False;right;1,3;-0,15;1;both;0,674000024796
ASA97w;2017-06-01-08-54-22;4;25;0,987655585307;True;both;1,9;0,15;-1;both;0,895999908447
ASA97w;2017-06-01-08-54-22;4;26;0,947105859233;False;both;1,9;-0,15;1;both;0,444999933243
ASA97w;2017-06-01-08-54-22;4;27;0,975231136716;True;both;1,5;0,15;-1;both;0,34299993515
ASA97w;2017-06-01-08-54-22;4;28;1,18269807833;False;right;1,3;0,0;-1;right;0,263000011444
ASA97w;2017-06-01-08-54-22;4;29;1,05791840966;True;left;1,3;0,0;-1;both;0,338999986649
ASA97w;2017-06-01-08-54-22;4;30;1,11812906705;False;left;1,9;0,15;-1;left;0,387000083923
ASA97w;2017-06-01-08-54-22;4;31;1,14568844966;True;right;1,7;-0,15;-1;right;0,457000017166
ASA97w;2017-06-01-08-54-22;4;32;1,09518363583;False;left;1,1;0,15;-1;left;0,305000066757
ASA97w;2017-06-01-08-54-22;4;33;0,911516461481;True;left;1,7;-0,15;1;left;0,975000143051
ASA97w;2017-06-01-08-54-22;4;34;0,928197919605;False;left;1,3;-0,15;-1;left;0,283999919891
ASA97w;2017-06-01-08-54-22;4;35;1,19629786112;True;neither;1,1;0,15;-1;neither;1,0110001564
ASA97w;2017-06-01-08-54-22;4;36;0,809422607843;False;neither;1,7;0,15;-1;neither;1,0609998703
ASA97w;2017-06-01-08-54-22;4;37;1,1382455212;True;both;1,7;0,15;1;both;0,303999900818
ASA97w;2017-06-01-08-54-22;4;38;0,945068147463;False;neither;1,5;0,15;-1;neither;0,327999830246
ASA97w;2017-06-01-08-54-22;4;39;1,07901068796;True;right;1,5;0,15;1;right;0,269999980927
ASA97w;2017-06-01-08-54-22;4;40;1,16511597151;False;right;1,5;-0,15;1;neither;0,427000045776
ASA97w;2017-06-01-08-54-22;4;41;0,891560573898;True;left;1,3;0,0;1;left;0,294000148773
ASA97w;2017-06-01-08-54-22;4;42;1,06757754362;False;right;1,1;0,0;1;right;0,708999872208
ASA97w;2017-06-01-08-54-22;4;43;1,09057474571;True;left;1,7;0,0;1;left;0,320999860764
ASA97w;2017-06-01-08-54-22;4;44;0,88660326352;False;neither;1,9;0,0;1;neither;0,68499994278
ASA97w;2017-06-01-08-54-22;4;45;1,11572939002;True;left;1,7;-0,15;-1;right;0,717000007629
ASA97w;2017-06-01-08-54-22;5;1;1,08879531856;False;neither;1,7;0,0;-1;neither;0,818000078201
ASA97w;2017-06-01-08-54-22;5;2;1,08407881024;True;left;1,1;0,15;1;left;0,338999986649
ASA97w;2017-06-01-08-54-22;5;3;1,01744276713;False;right;1,5;0,15;1;right;0,338999986649
ASA97w;2017-06-01-08-54-22;5;4;0,854585828043;True;neither;1,3;-0,15;-1;neither;0,346999883652
ASA97w;2017-06-01-08-54-22;5;5;0,843081414671;False;right;1,3;-0,15;1;neither;0,298000097275
ASA97w;2017-06-01-08-54-22;5;6;1,18816867229;True;neither;1,5;0,15;-1;neither;0,376999855042
ASA97w;2017-06-01-08-54-22;5;7;1,07636969623;False;right;1,3;-0,15;-1;both;0,295000076294
ASA97w;2017-06-01-08-54-22;5;8;1,14452231932;True;left;1,3;0,0;1;left;0,273000001907
ASA97w;2017-06-01-08-54-22;5;9;0,840120688691;False;right;1,7;0,0;1;right;0,346999883652
ASA97w;2017-06-01-08-54-22;5;10;1,08702773152;True;both;1,7;-0,15;-1;both;1,0529999733
ASA97w;2017-06-01-08-54-22;5;11;0,992961557793;False;both;1,3;-0,15;-1;both;0,309000015259
ASA97w;2017-06-01-08-54-22;5;12;1,08213741348;True;right;1,7;-0,15;-1;both;0,235000133514
ASA97w;2017-06-01-08-54-22;5;13;1,07098146959;False;neither;1,9;0,15;-1;neither;0,366999864578
ASA97w;2017-06-01-08-54-22;5;14;1,10935618548;True;left;1,9;-0,15;1;both;0,283999919891
ASA97w;2017-06-01-08-54-22;5;15;0,916152811649;False;right;1,3;0,0;1;right;0,242000102997
ASA97w;2017-06-01-08-54-22;5;16;0,818394848618;True;left;1,7;-0,15;1;neither;0,506000041962
ASA97w;2017-06-01-08-54-22;5;17;0,852893012654;False;right;1,9;0,15;-1;neither;0,246000051498
ASA97w;2017-06-01-08-54-22;5;18;1,18075361061;True;left;1,7;0,15;1;left;0,259999990463
ASA97w;2017-06-01-08-54-22;5;19;1,14409627073;False;neither;1,5;-0,15;-1;neither;0,31200003624
ASA97w;2017-06-01-08-54-22;5;20;0,91041045861;True;left;1,1;0,0;-1;left;0,297999858856
ASA97w;2017-06-01-08-54-22;5;21;1,19391506684;False;neither;1,3;0,15;1;neither;0,446999788284
ASA97w;2017-06-01-08-54-22;5;22;0,811023561439;True;left;1,9;0,0;-1;neither;0,343000173569
ASA97w;2017-06-01-08-54-22;5;23;1,19545380831;False;neither;1,3;0,0;-1;neither;0,733999967575
ASA97w;2017-06-01-08-54-22;5;24;0,907018736038;True;right;1,5;0,15;1;right;0,320999860764
ASA97w;2017-06-01-08-54-22;5;25;0,974766418337;False;right;1,1;-0,15;-1;neither;0,49799990654
ASA97w;2017-06-01-08-54-22;5;26;1,03233165654;True;both;1,5;0,15;-1;both;0,394999980927
ASA97w;2017-06-01-08-54-22;5;27;1,12068848047;False;right;1,5;-0,15;-1;neither;0,345999956131
ASA97w;2017-06-01-08-54-22;5;28;1,09933944133;True;right;1,9;0,0;-1;right;0,246999979019
ASA97w;2017-06-01-08-54-22;5;29;1,04679217673;False;neither;1,1;0,15;-1;neither;0,71799993515
ASA97w;2017-06-01-08-54-22;5;30;0,822564685646;True;neither;1,7;0,15;1;neither;0,551000118256
ASA97w;2017-06-01-08-54-22;5;31;0,816226412251;False;left;1,5;0,15;-1;left;0,318000078201
ASA97w;2017-06-01-08-54-22;5;32;0,844062530532;True;neither;1,9;-0,15;-1;neither;0,294999837875
ASA97w;2017-06-01-08-54-22;5;33;0,99596528564;False;right;1,3;0,0;-1;right;0,273000001907
ASA97w;2017-06-01-08-54-22;5;34;0,85770440836;True;left;1,3;-0,15;-1;both;0,230000019073
ASA97w;2017-06-01-08-54-22;5;35;1,06658879379;False;left;1,1;-0,15;-1;left;0,457000017166
ASA97w;2017-06-01-08-54-22;5;36;1,07169526226;True;right;1,7;0,15;-1;right;0,163000106812
ASA97w;2017-06-01-08-54-22;5;37;0,842619836587;False;right;1,5;0,0;-1;right;0,285000085831
ASA97w;2017-06-01-08-54-22;5;38;0,926643283109;True;left;1,7;0,0;-1;left;0,283999919891
ASA97w;2017-06-01-08-54-22;5;39;0,966663535584;False;left;1,5;0,15;1;left;0,0
ASA97w;2017-06-01-08-54-22;5;40;1,00969007423;True;right;1,9;0,15;-1;neither;0,553999900818
ASA97w;2017-06-01-08-54-22;5;41;0,897601029716;False;both;1,9;0,15;-1;both;1,13300013542
ASA97w;2017-06-01-08-54-22;5;42;1,04477902124;True;right;1,1;0,0;-1;right;0,316999912262
ASA97w;2017-06-01-08-54-22;5;43;0,825312044863;False;right;1,5;0,0;1;right;0,383999824524
ASA97w;2017-06-01-08-54-22;5;44;1,17973521436;True;right;1,7;-0,15;1;right;0,455999851227
ASA97w;2017-06-01-08-54-22;5;45;0,887948762677;False;right;1,7;0,0;-1;right;0,296999931335
ASA97w;2017-06-01-08-54-22;6;1;0,974319993376;True;neither;1,7;0,0;-1;neither;0,40700006485
ASA97w;2017-06-01-08-54-22;6;2;0,849505691275;False;left;1,1;0,15;1;left;0,294999837875
ASA97w;2017-06-01-08-54-22;6;3;1,14644813303;True;right;1,5;0,15;1;right;0,440999984741
ASA97w;2017-06-01-08-54-22;6;4;0,81816142307;False;neither;1,3;-0,15;1;neither;0,549999952316
ASA97w;2017-06-01-08-54-22;6;5;1,13707182337;True;right;1,3;-0,15;1;both;0,257999897003
ASA97w;2017-06-01-08-54-22;6;6;0,811159156478;False;neither;1,5;0,15;1;neither;0,066999912262
ASA97w;2017-06-01-08-54-22;6;7;0,892505746574;True;right;1,3;-0,15;-1;right;0,323999881744
ASA97w;2017-06-01-08-54-22;6;8;0,872853067047;False;left;1,3;0,0;1;neither;0,0
ASA97w;2017-06-01-08-54-22;6;9;1,12574727716;True;right;1,7;0,0;-1;right;0,302999973297
ASA97w;2017-06-01-08-54-22;6;10;1,17659617568;False;both;1,7;-0,15;1;both;0,34500002861
ASA97w;2017-06-01-08-54-22;6;11;0,991550651694;True;both;1,3;-0,15;-1;both;0,226999998093
ASA97w;2017-06-01-08-54-22;6;12;1,0338500221;False;right;1,7;-0,15;-1;right;0,249000072479
ASA97w;2017-06-01-08-54-22;6;13;1,18207681375;True;neither;1,9;0,15;-1;neither;0,323999881744
ASA97w;2017-06-01-08-54-22;6;14;0,902632788897;False;left;1,9;-0,15;-1;left;0,308000087738
ASA97w;2017-06-01-08-54-22;6;15;0,918127609588;True;right;1,3;0,0;-1;right;0,302999973297
ASA97w;2017-06-01-08-54-22;6;16;1,19179144407;False;left;1,7;-0,15;-1;both;0,988999843597
ASA97w;2017-06-01-08-54-22;6;17;0,8316697879;True;right;1,9;0,15;-1;neither;0,348999977112
ASA97w;2017-06-01-08-54-22;6;18;1,0778808418;False;left;1,7;0,15;-1;neither;0,310000181198
ASA97w;2017-06-01-08-54-22;6;19;1,01680558471;True;neither;1,5;-0,15;-1;neither;0,37700009346
ASA97w;2017-06-01-08-54-22;6;20;0,927778006962;False;left;1,1;0,0;1;left;0,302000045776
ASA97w;2017-06-01-08-54-22;6;21;0,911173254926;True;neither;1,3;0,15;-1;neither;0,592000007629
ASA97w;2017-06-01-08-54-22;6;22;0,979553034182;False;left;1,9;0,0;1;left;0,324000120163
ASA97w;2017-06-01-08-54-22;6;23;0,820989049243;True;neither;1,3;0,0;-1;neither;0,341000080109
ASA97w;2017-06-01-08-54-22;6;24;0,909964938295;False;right;1,5;0,15;1;right;0,34500002861
ASA97w;2017-06-01-08-54-22;6;25;1,06863871513;True;right;1,1;-0,15;1;neither;0,305999994278
ASA97w;2017-06-01-08-54-22;6;26;0,828272419102;False;both;1,5;0,15;-1;both;0,050999879837
ASA97w;2017-06-01-08-54-22;6;27;0,840216072365;True;right;1,5;-0,15;-1;both;0,349999904633
ASA97w;2017-06-01-08-54-22;6;28;1,18692833852;False;right;1,9;0,0;-1;right;1,10700011253
ASA97w;2017-06-01-08-54-22;6;29;0,883104156549;True;neither;1,1;0,15;-1;neither;0,419999837875
ASA97w;2017-06-01-08-54-22;6;30;0,887898731586;False;neither;1,7;0,15;-1;neither;1,05999994278
ASA97w;2017-06-01-08-54-22;6;31;0,93872800829;True;left;1,5;0,15;-1;left;0,292999982834
ASA97w;2017-06-01-08-54-22;6;32;1,08359420656;False;neither;1,9;-0,15;1;neither;0,325000047684
ASA97w;2017-06-01-08-54-22;6;33;1,1393390386;True;right;1,3;0,0;-1;right;0,424999952316
ASA97w;2017-06-01-08-54-22;6;34;0,80529111672;False;left;1,3;-0,15;1;left;0,327000141144
ASA97w;2017-06-01-08-54-22;6;35;1,13251713742;True;left;1,1;-0,15;1;neither;0,569999933243
ASA97w;2017-06-01-08-54-22;6;36;0,842499107009;False;right;1,7;0,15;1;right;0,395999908447
ASA97w;2017-06-01-08-54-22;6;37;1,1864174262;True;right;1,5;0,0;-1;right;0,3109998703
ASA97w;2017-06-01-08-54-22;6;38;1,17959177369;False;left;1,7;0,0;1;left;0,111000061035
ASA97w;2017-06-01-08-54-22;6;39;0,981191925775;True;left;1,5;0,15;1;neither;0,269999980927
ASA97w;2017-06-01-08-54-22;6;40;1,15759681851;False;right;1,9;0,15;1;right;0,303999900818
ASA97w;2017-06-01-08-54-22;6;41;0,848179847964;True;both;1,9;0,15;-1;both;0,388999938965
ASA97w;2017-06-01-08-54-22;6;42;1,1465154443;False;right;1,1;0,0;1;right;0,444999933243
ASA97w;2017-06-01-08-54-22;6;43;1,18090460297;True;right;1,5;0,0;1;right;0,307000160217
ASA97w;2017-06-01-08-54-22;6;44;1,07271886095;False;right;1,7;-0,15;-1;right;0,269000053406
ASA97w;2017-06-01-08-54-22;6;45;1,1304017703;True;right;1,7;0,0;-1;left;0,305000066757
ASA97w;2017-06-01-08-54-22;7;1;0,982845179588;False;neither;1,1;-0,15;1;neither;1,34300017357
ASA97w;2017-06-01-08-54-22;7;2;0,819627385987;True;neither;1,9;0,15;1;neither;1,44600009918
ASA97w;2017-06-01-08-54-22;7;3;0,940289043521;False;both;1,7;-0,15;-1;both;0,319999933243
ASA97w;2017-06-01-08-54-22;7;4;0,844846008685;True;both;1,1;0,15;1;both;0,292000055313
ASA97w;2017-06-01-08-54-22;7;5;1,13463832813;False;neither;1,3;0,0;1;neither;0,809000015259
ASA97w;2017-06-01-08-54-22;7;6;1,08523720354;True;both;1,1;-0,15;1;both;0,28200006485
ASA97w;2017-06-01-08-54-22;7;7;1,06015145428;False;left;1,3;0,0;1;neither;0,253000020981
ASA97w;2017-06-01-08-54-22;7;8;0,831526067342;True;left;1,7;0,15;-1;left;0,291999816895
ASA97w;2017-06-01-08-54-22;7;9;1,00686575853;False;both;1,7;0,0;-1;both;0,384000062943
ASA97w;2017-06-01-08-54-22;7;10;1,03758615431;True;left;1,5;0,15;-1;left;0,326999902725
ASA97w;2017-06-01-08-54-22;7;11;0,984339335355;False;right;1,3;-0,15;-1;neither;0,471999883652
ASA97w;2017-06-01-08-54-22;7;12;0,805395043179;True;neither;1,3;-0,15;-1;neither;0,355000019073
ASA97w;2017-06-01-08-54-22;7;13;0,985708531061;False;right;1,9;0,15;1;right;0,337999820709
ASA97w;2017-06-01-08-54-22;7;14;1,15674527659;True;neither;1,5;0,15;1;neither;0,450000047684
ASA97w;2017-06-01-08-54-22;7;15;0,887951009819;False;neither;1,7;-0,15;1;neither;0,553999900818
ASA97w;2017-06-01-08-54-22;7;16;0,982555627555;True;left;1,3;-0,15;-1;left;0,313999891281
ASA97w;2017-06-01-08-54-22;7;17;0,915031183517;False;left;1,9;0,15;1;left;0,292000055313
ASA97w;2017-06-01-08-54-22;7;18;0,961677321609;True;right;1,9;-0,15;1;neither;0,313999891281
ASA97w;2017-06-01-08-54-22;7;19;0,943950596174;False;right;1,7;-0,15;-1;neither;0,253999948502
ASA97w;2017-06-01-08-54-22;7;20;1,18235995349;True;both;1,1;0,0;1;both;0,0
ASA97w;2017-06-01-08-54-22;7;21;0,994318021139;False;right;1,5;-0,15;1;neither;0,415999889374
ASA97w;2017-06-01-08-54-22;7;22;1,18143575009;True;right;1,3;0,15;1;right;0,338999986649
ASA97w;2017-06-01-08-54-22;7;23;1,15120310813;False;left;1,1;0,0;1;left;0,362999916077
ASA97w;2017-06-01-08-54-22;7;24;1,03080059714;True;left;1,3;0,0;1;neither;0,495000123978
ASA97w;2017-06-01-08-54-22;7;25;1,08506567552;False;right;1,1;-0,15;-1;right;0,0
ASA97w;2017-06-01-08-54-22;7;26;0,859420700388;True;right;1,1;0,0;1;right;0,319000005722
ASA97w;2017-06-01-08-54-22;7;27;0,937888614353;False;neither;1,1;0,0;1;neither;0,396000146866
ASA97w;2017-06-01-08-54-22;7;28;1,13723208052;True;left;1,3;-0,15;1;left;0,374000072479
ASA97w;2017-06-01-08-54-22;7;29;1,07477020315;False;left;1,1;-0,15;-1;neither;0,631000041962
ASA97w;2017-06-01-08-54-22;7;30;1,1351576093;True;right;1,9;0,0;1;right;0,313999891281
ASA97w;2017-06-01-08-54-22;7;31;0,958881720003;False;right;1,9;-0,15;1;neither;0,804000139236
ASA97w;2017-06-01-08-54-22;7;32;1,11018064104;True;neither;1,9;0,0;-1;neither;0,765000104904
ASA97w;2017-06-01-08-54-22;7;33;0,91304242351;False;left;1,5;-0,15;-1;neither;0,327999830246
ASA97w;2017-06-01-08-54-22;7;34;0,945632945308;True;right;1,7;-0,15;-1;neither;0,476999998093
ASA97w;2017-06-01-08-54-22;7;35;1,19129835099;False;both;1,5;0,0;-1;both;0,276999950409
ASA97w;2017-06-01-08-54-22;7;36;0,979558728442;True;neither;1,3;0,15;-1;neither;0,332000017166
ASA97w;2017-06-01-08-54-22;7;37;0,940284852135;False;right;1,9;0,0;1;right;0,398000001907
ASA97w;2017-06-01-08-54-22;7;38;0,847404091572;True;left;1,5;-0,15;1;both;0,364000082016
ASA97w;2017-06-01-08-54-22;7;39;0,836947871605;False;right;1,9;0,15;-1;neither;0,633999824524
ASA97w;2017-06-01-08-54-22;7;40;1,1756577424;True;left;1,5;0,0;-1;neither;0,394000053406
ASA97w;2017-06-01-08-54-22;7;41;0,84290190377;False;right;1,7;0,15;-1;right;0,361000061035
ASA97w;2017-06-01-08-54-22;7;42;0,907401359526;True;neither;1,1;0,15;-1;neither;0,802999973297
ASA97w;2017-06-01-08-54-22;7;43;1,19995345336;False;left;1,9;-0,15;1;neither;0,938000202179
ASA97w;2017-06-01-08-54-22;7;44;1,06891973157;True;right;1,5;-0,15;-1;neither;0,417000055313
ASA97w;2017-06-01-08-54-22;7;45;0,90819103053;False;left;1,7;0,0;-1;both;0,497000217438
ASA97w;2017-06-01-08-54-22;8;1;1,11500495985;True;neither;1,1;-0,15;1;neither;0,337999820709
ASA97w;2017-06-01-08-54-22;8;2;0,829848191773;False;neither;1,9;0,15;1;neither;0,842000007629
ASA97w;2017-06-01-08-54-22;8;3;1,09498907311;True;both;1,7;-0,15;-1;both;0,30899977684
ASA97w;2017-06-01-08-54-22;8;4;0,808462337278;False;both;1,1;0,15;-1;both;0,326999902725
ASA97w;2017-06-01-08-54-22;8;5;0,973645900794;True;neither;1,3;0,0;-1;neither;0,401999950409
ASA97w;2017-06-01-08-54-22;8;6;0,916014063806;False;both;1,1;-0,15;1;both;0,260999917984
ASA97w;2017-06-01-08-54-22;8;7;0,871329921758;True;left;1,3;0,0;1;both;0,319000005722
ASA97w;2017-06-01-08-54-22;8;8;0,806371612568;False;left;1,7;0,15;1;left;0,34299993515
ASA97w;2017-06-01-08-54-22;8;9;0,993228045063;True;both;1,7;0,0;-1;both;0,306999921799
ASA97w;2017-06-01-08-54-22;8;10;1,07211757216;False;left;1,5;0,15;-1;left;0,345999956131
ASA97w;2017-06-01-08-54-22;8;11;0,894038975456;True;right;1,3;-0,15;1;both;0,611999988556
ASA97w;2017-06-01-08-54-22;8;12;1,04863575065;False;neither;1,3;-0,15;-1;neither;0,264999866486
ASA97w;2017-06-01-08-54-22;8;13;1,01659604269;True;right;1,9;0,15;-1;right;0,745000123978
ASA97w;2017-06-01-08-54-22;8;14;1,17256667861;False;neither;1,5;0,15;-1;neither;1,00600004196
ASA97w;2017-06-01-08-54-22;8;15;1,11887314353;True;neither;1,7;-0,15;1;neither;0,358999967575
ASA97w;2017-06-01-08-54-22;8;16;0,947797482992;False;left;1,3;-0,15;-1;left;0,27799987793
ASA97w;2017-06-01-08-54-22;8;17;0,942834394053;True;left;1,9;0,15;1;left;0,340000152588
ASA97w;2017-06-01-08-54-22;8;18;1,12222226953;False;right;1,9;-0,15;-1;neither;0,391000032425
ASA97w;2017-06-01-08-54-22;8;19;0,935597875692;True;right;1,7;-0,15;-1;right;0,378999948502
ASA97w;2017-06-01-08-54-22;8;20;0,880384476909;False;both;1,1;0,0;-1;neither;0,322999954224
ASA97w;2017-06-01-08-54-22;8;21;1,09586066369;True;right;1,5;-0,15;1;right;0,0
ASA97w;2017-06-01-08-54-22;8;22;1,03510954177;False;right;1,3;0,15;-1;right;0,332000017166
ASA97w;2017-06-01-08-54-22;8;23;1,16030666221;True;left;1,1;0,0;1;neither;0,371999979019
ASA97w;2017-06-01-08-54-22;8;24;1,05954327744;False;left;1,3;0,0;1;left;0,0
ASA97w;2017-06-01-08-54-22;8;25;1,14810858822;True;right;1,1;-0,15;-1;right;0,538999795914
ASA97w;2017-06-01-08-54-22;8;26;1,18557026247;False;right;1,1;0,0;-1;right;0,773000001907
ASA97w;2017-06-01-08-54-22;8;27;1,05448065147;True;neither;1,1;0,0;1;neither;1,06599998474
ASA97w;2017-06-01-08-54-22;8;28;1,04256657424;False;left;1,3;-0,15;1;neither;0,34700012207
ASA97w;2017-06-01-08-54-22;8;29;1,12517777589;True;left;1,1;-0,15;-1;neither;0,369999885559
ASA97w;2017-06-01-08-54-22;8;30;0,942624158673;False;right;1,9;0,0;1;right;0,825999975204
ASA97w;2017-06-01-08-54-22;8;31;0,845395005323;True;right;1,9;-0,15;-1;neither;0,628000020981
ASA97w;2017-06-01-08-54-22;8;32;1,02684791386;False;neither;1,9;0,0;1;neither;0,385999917984
ASA97w;2017-06-01-08-54-22;8;33;0,961297136213;True;left;1,5;-0,15;1;left;0,0
ASA97w;2017-06-01-08-54-22;8;34;1,02358964885;False;right;1,7;-0,15;-1;right;0,537999868393
ASA97w;2017-06-01-08-54-22;8;35;0,815113038355;True;both;1,5;0,0;1;both;0,361999988556
ASA97w;2017-06-01-08-54-22;8;36;1,12237228938;False;neither;1,3;0,15;-1;neither;0,822000026703
ASA97w;2017-06-01-08-54-22;8;37;0,946800883237;True;right;1,9;0,0;-1;neither;0,358999967575
ASA97w;2017-06-01-08-54-22;8;38;1,1541805025;False;left;1,5;-0,15;-1;neither;0,373999834061
ASA97w;2017-06-01-08-54-22;8;39;0,870033379647;True;right;1,9;0,15;-1;neither;0,358000040054
ASA97w;2017-06-01-08-54-22;8;40;1,01211665046;False;left;1,5;0,0;-1;neither;0,4359998703
ASA97w;2017-06-01-08-54-22;8;41;0,826834559299;True;right;1,7;0,15;-1;right;0,302999973297
ASA97w;2017-06-01-08-54-22;8;42;0,946852661992;False;neither;1,1;0,15;1;neither;0,40299987793
ASA97w;2017-06-01-08-54-22;8;43;0,910730080791;True;left;1,9;-0,15;1;both;0,944999933243
ASA97w;2017-06-01-08-54-22;8;44;0,869237121319;False;right;1,5;-0,15;-1;neither;0,397000074387
ASA97w;2017-06-01-08-54-22;8;45;0,897104207649;True;left;1,7;0,0;-1;neither;0,365999937057
ASA97w;2017-06-01-08-54-22;9;1;1,18052497062;False;both;1,9;0,15;-1;both;1,06199979782
ASA97w;2017-06-01-08-54-22;9;2;1,13764949205;True;left;1,9;0,0;-1;neither;0,329999923706
ASA97w;2017-06-01-08-54-22;9;3;1,18643850428;False;right;1,1;-0,15;1;both;0,335999965668
ASA97w;2017-06-01-08-54-22;9;4;0,889784513766;True;neither;1,1;-0,15;-1;neither;0,319000005722
ASA97w;2017-06-01-08-54-22;9;5;1,00439783551;False;right;1,7;0,15;1;right;0,333999872208
ASA97w;2017-06-01-08-54-22;9;6;1,12927193876;True;right;1,3;-0,15;-1;both;0,62299990654
ASA97w;2017-06-01-08-54-22;9;7;1,05536896583;False;right;1,5;0,0;-1;right;0,287999868393
ASA97w;2017-06-01-08-54-22;9;8;1,00857492457;True;right;1,9;-0,15;1;neither;0,325999975204
ASA97w;2017-06-01-08-54-22;9;9;0,985435396579;False;right;1,7;-0,15;-1;neither;0,352999925613
ASA97w;2017-06-01-08-54-22;9;10;1,05904000359;True;neither;1,9;0,15;1;neither;0,40499997139
ASA97w;2017-06-01-08-54-22;9;11;1,06126458807;False;neither;1,5;-0,15;1;neither;0,314999818802
ASA97w;2017-06-01-08-54-22;9;12;0,880907293118;True;right;1,7;0,15;-1;right;0,273000001907
ASA97w;2017-06-01-08-54-22;9;13;1,09647814471;False;right;1,9;0,15;-1;right;0,519000053406
ASA97w;2017-06-01-08-54-22;9;14;0,896381100872;True;right;1,1;0,15;1;right;0,316999912262
ASA97w;2017-06-01-08-54-22;9;15;1,15412376479;False;both;1,7;0,0;1;both;0,31200003624
ASA97w;2017-06-01-08-54-22;9;16;0,819055567603;True;both;1,7;0,15;1;both;0,503999948502
ASA97w;2017-06-01-08-54-22;9;17;0,958820401111;False;left;1,9;0,0;-1;left;0,280999898911
ASA97w;2017-06-01-08-54-22;9;18;0,842456793974;True;left;1,7;0,0;1;left;0,365999937057
ASA97w;2017-06-01-08-54-22;9;19;0,947629474289;False;neither;1,7;0,0;1;neither;0,670000076294
ASA97w;2017-06-01-08-54-22;9;20;1,13957282459;True;left;1,7;0,0;1;both;0,505000114441
ASA97w;2017-06-01-08-54-22;9;21;0,925482443171;False;left;1,1;0,0;1;neither;0,359999895096
ASA97w;2017-06-01-08-54-22;9;22;1,17605167491;True;left;1,5;0,0;1;left;0,223000049591
ASA97w;2017-06-01-08-54-22;9;23;1,16580848314;False;right;1,1;0,0;1;right;0,226999998093
ASA97w;2017-06-01-08-54-22;9;24;1,15750164719;True;neither;1,9;0,0;1;neither;0,432000160217
ASA97w;2017-06-01-08-54-22;9;25;1,195228433;False;left;1,3;-0,15;-1;neither;0,0
ASA97w;2017-06-01-08-54-22;9;26;1,1951662265;True;neither;1,5;0,0;1;neither;0,406000137329
ASA97w;2017-06-01-08-54-22;9;27;1,06018724288;False;right;1,1;0,15;1;right;0,000999927520752
ASA97w;2017-06-01-08-54-22;9;28;1,04641613983;True;left;1,5;-0,15;1;neither;0,276999950409
ASA97w;2017-06-01-08-54-22;9;29;1,17021195537;False;left;1,3;0,15;-1;neither;0,193000078201
ASA97w;2017-06-01-08-54-22;9;30;1,06452554699;True;right;1,3;-0,15;-1;neither;0,34600019455
ASA97w;2017-06-01-08-54-22;9;31;1,18173387903;False;left;1,7;-0,15;-1;neither;0,0640001296997
ASA97w;2017-06-01-08-54-22;9;32;1,07202613615;True;both;1,7;-0,15;-1;neither;0,375999927521
ASA97w;2017-06-01-08-54-22;9;33;0,943943734144;False;right;1,3;0,15;1;right;0,223999977112
ASA97w;2017-06-01-08-54-22;9;34;0,878799160692;True;right;1,5;0,0;1;neither;0,9390001297
ASA97w;2017-06-01-08-54-22;9;35;0,807618716939;False;left;1,1;0,15;-1;neither;0,281000137329
ASA97w;2017-06-01-08-54-22;9;36;0,999516855178;True;right;1,1;-0,15;1;both;0,193000078201
ASA97w;2017-06-01-08-54-22;9;37;1,03211719318;False;left;1,3;-0,15;-1;both;0,0
ASA97w;2017-06-01-08-54-22;9;38;0,933399201143;True;neither;1,5;0,15;-1;neither;0,305999994278
ASA97w;2017-06-01-08-54-22;9;39;0,949176663539;False;right;1,9;0,15;-1;right;0,248999834061
ASA97w;2017-06-01-08-54-22;9;40;1,07582158336;True;both;1,5;0,0;1;both;0,287000179291
ASA97w;2017-06-01-08-54-22;9;41;1,10281327489;False;left;1,7;-0,15;1;both;0,363999843597
ASA97w;2017-06-01-08-54-22;9;42;0,975067362439;True;both;1,1;0,0;1;both;0,31500005722
ASA97w;2017-06-01-08-54-22;9;43;1,19777299938;False;both;1,9;-0,15;1;neither;0,532999992371
ASA97w;2017-06-01-08-54-22;9;44;0,857508750549;True;right;1,9;0,0;1;both;0,0
ASA97w;2017-06-01-08-54-22;9;45;0,947423750773;False;left;1,7;0,15;-1;right;0,000999927520752
ASA97w;2017-06-01-08-54-22;10;1;0,879145812608;True;both;1,9;0,15;-1;right;0,697999954224
ASA97w;2017-06-01-08-54-22;10;2;1,02159020239;False;left;1,9;0,0;1;both;0,914999961853
ASA97w;2017-06-01-08-54-22;10;3;0,998355475334;True;right;1,1;-0,15;1;both;0,0
ASA97w;2017-06-01-08-54-22;10;4;0,877540044257;False;neither;1,1;-0,15;-1;neither;0,441999912262
ASA97w;2017-06-01-08-54-22;10;5;0,809865749613;True;right;1,7;0,15;1;right;0,295000076294
ASA97w;2017-06-01-08-54-22;10;6;1,15177548144;False;right;1,3;-0,15;1;both;0,237999916077
ASA97w;2017-06-01-08-54-22;10;7;0,822064606413;True;right;1,5;0,0;-1;right;0,289000034332
ASA97w;2017-06-01-08-54-22;10;8;1,1160730442;False;right;1,9;-0,15;-1;neither;0,3140001297
ASA97w;2017-06-01-08-54-22;10;9;1,10485259416;True;right;1,7;-0,15;1;both;0,596999883652
ASA97w;2017-06-01-08-54-22;10;10;1,09335151171;False;neither;1,9;0,15;1;neither;0,302000045776
ASA97w;2017-06-01-08-54-22;10;11;1,00637262656;True;neither;1,5;-0,15;1;neither;0,361999988556
ASA97w;2017-06-01-08-54-22;10;12;0,854807347118;False;right;1,7;0,15;-1;right;0,115000009537
ASA97w;2017-06-01-08-54-22;10;13;0,895329583551;True;right;1,9;0,15;1;right;0,289000034332
ASA97w;2017-06-01-08-54-22;10;14;1,1884074865;False;right;1,1;0,15;-1;neither;0,172999858856
ASA97w;2017-06-01-08-54-22;10;15;1,03304653821;True;both;1,7;0,0;1;neither;0,301000118256
ASA97w;2017-06-01-08-54-22;10;16;1,03196771951;False;both;1,7;0,15;1;both;0,30999994278
ASA97w;2017-06-01-08-54-22;10;17;0,930589698382;True;left;1,9;0,0;-1;left;0,294000148773
ASA97w;2017-06-01-08-54-22;10;18;1,10323038483;False;left;1,7;0,0;-1;both;0,334999799728
ASA97w;2017-06-01-08-54-22;10;19;1,06717707187;True;neither;1,7;0,0;-1;neither;0,444000005722
ASA97w;2017-06-01-08-54-22;10;20;0,993887864618;False;left;1,7;0,0;-1;both;0,30999994278
ASA97w;2017-06-01-08-54-22;10;21;1,13030475275;True;left;1,1;0,0;-1;both;0,269999980927
ASA97w;2017-06-01-08-54-22;10;22;1,12072772059;False;left;1,5;0,0;1;left;0,255000114441
ASA97w;2017-06-01-08-54-22;10;23;0,954637220778;True;right;1,1;0,0;1;right;0,0889999866486
ASA97w;2017-06-01-08-54-22;10;24;0,98945177873;False;neither;1,9;0,0;1;neither;0,84299993515
ASA97w;2017-06-01-08-54-22;10;25;0,848478126597;True;left;1,3;-0,15;-1;neither;0,311000108719
ASA97w;2017-06-01-08-54-22;10;26;0,841018071323;False;neither;1,5;0,0;1;neither;0,304999828339
ASA97w;2017-06-01-08-54-22;10;27;1,15772844178;True;right;1,1;0,15;-1;both;0,128999948502
ASA97w;2017-06-01-08-54-22;10;28;0,984843700253;False;left;1,5;-0,15;-1;left;0,0
ASA97w;2017-06-01-08-54-22;10;29;0,981271293308;True;left;1,3;0,15;1;left;0,0739998817444
ASA97w;2017-06-01-08-54-22;10;30;0,849669398218;False;right;1,3;-0,15;-1;right;0,296000003815
ASA97w;2017-06-01-08-54-22;10;31;1,17765618231;True;left;1,7;-0,15;-1;left;0,31600022316
ASA97w;2017-06-01-08-54-22;10;32;1,17910558545;False;both;1,7;-0,15;1;neither;1,13599991798
ASA97w;2017-06-01-08-54-22;10;33;0,853875220413;True;right;1,3;0,15;-1;right;0,264000177383
ASA97w;2017-06-01-08-54-22;10;34;1,0433968208;False;right;1,5;0,0;1;right;0,255000114441
ASA97w;2017-06-01-08-54-22;10;35;1,1858611291;True;left;1,1;0,15;-1;left;0,0
ASA97w;2017-06-01-08-54-22;10;36;0,926842697379;False;right;1,1;-0,15;1;right;0,0
ASA97w;2017-06-01-08-54-22;10;37;0,87692660308;True;left;1,3;-0,15;-1;neither;0,304000139236
ASA97w;2017-06-01-08-54-22;10;38;0,962160587054;False;neither;1,5;0,15;1;neither;0,421999931335
ASA97w;2017-06-01-08-54-22;10;39;0,810213354555;True;right;1,9;0,15;1;right;0,284999847412
ASA97w;2017-06-01-08-54-22;10;40;0,892086311773;False;both;1,5;0,0;-1;both;0,388000011444
ASA97w;2017-06-01-08-54-22;10;41;0,993560019848;True;left;1,7;-0,15;1;neither;0,361999988556
ASA97w;2017-06-01-08-54-22;10;42;1,15398918809;False;both;1,1;0,0;-1;both;0,0750000476837
ASA97w;2017-06-01-08-54-22;10;43;0,971707725449;True;both;1,9;-0,15;1;neither;0,404000043869
ASA97w;2017-06-01-08-54-22;10;44;1,03646895707;False;right;1,9;0,0;-1;neither;0,334999799728
ASA97w;2017-06-01-08-54-22;10;45;1,1706049667;True;left;1,7;0,15;1;left;0,298000097275
