Observer;SessionID;Block;Trial;OnsetDelay;Yellow;Switch;SwitchTime;Gap;Direction;Response;RT
AZM90w;2017-05-29-15-18-51;1;1;0,999861588967;False;neither;1,7;0,15;-1;neither;0,958999872208
AZM90w;2017-05-29-15-18-51;1;2;1,01904068154;True;right;1,9;0,0;1;right;1,1819999218
AZM90w;2017-05-29-15-18-51;1;3;0,81819316743;False;both;1,3;0,0;1;both;2,375
AZM90w;2017-05-29-15-18-51;1;4;0,965954340801;True;both;1,1;0,15;1;both;0,456000089645
AZM90w;2017-05-29-15-18-51;1;5;1,18764533066;False;left;1,9;0,0;1;both;0,542000055313
AZM90w;2017-05-29-15-18-51;1;6;0,857415296674;True;right;1,3;0,0;1;right;0,384999990463
AZM90w;2017-05-29-15-18-51;1;7;0,939360280161;False;left;1,5;0,15;1;left;0,484999895096
AZM90w;2017-05-29-15-18-51;1;8;1,09403409202;True;left;1,1;0,15;-1;left;0,380000114441
AZM90w;2017-05-29-15-18-51;1;9;1,09206722457;False;both;1,7;0,15;-1;both;0,52599978447
AZM90w;2017-05-29-15-18-51;1;10;0,981969356545;True;right;1,9;-0,15;1;neither;0,794000148773
AZM90w;2017-05-29-15-18-51;1;11;1,10536950535;False;neither;1,3;0,0;-1;neither;1,02099990845
AZM90w;2017-05-29-15-18-51;1;12;1,09923171603;True;right;1,9;0,15;1;neither;1,19099998474
AZM90w;2017-05-29-15-18-51;1;13;0,951004497814;False;neither;1,7;-0,15;1;neither;1,26099991798
AZM90w;2017-05-29-15-18-51;1;14;0,985886594212;True;neither;1,3;-0,15;1;neither;0,987999916077
AZM90w;2017-05-29-15-18-51;1;15;1,12844967096;False;right;1,1;0,0;-1;right;0,369999885559
AZM90w;2017-05-29-15-18-51;1;16;0,828812782297;True;left;1,5;0,0;1;left;0,421000003815
AZM90w;2017-05-29-15-18-51;1;17;1,14283951481;False;right;1,5;0,0;1;right;0,548000097275
AZM90w;2017-05-29-15-18-51;1;18;1,0262697065;True;left;1,7;-0,15;-1;neither;0,516000032425
AZM90w;2017-05-29-15-18-51;1;19;1,0070820708;False;right;1,1;0,0;1;right;0,348000049591
AZM90w;2017-05-29-15-18-51;1;20;1,09030924007;True;left;1,3;-0,15;1;left;0,572000026703
AZM90w;2017-05-29-15-18-51;1;21;0,988923707601;False;both;1,7;-0,15;1;both;0,444000005722
AZM90w;2017-05-29-15-18-51;1;22;0,826981777726;True;neither;1,9;-0,15;1;neither;0,748000144958
AZM90w;2017-05-29-15-18-51;1;23;0,874521968639;False;both;1,5;-0,15;-1;both;2,69099998474
AZM90w;2017-05-29-15-18-51;1;24;1,1192935008;True;left;1,7;-0,15;-1;both;0,611999988556
AZM90w;2017-05-29-15-18-51;1;25;0,862511319753;False;left;1,1;0,0;1;left;0,330999851227
AZM90w;2017-05-29-15-18-51;1;26;0,833655507067;True;right;1,7;-0,15;-1;both;0,378000020981
AZM90w;2017-05-29-15-18-51;1;27;0,874905281724;False;left;1,5;0,15;-1;left;0,413000106812
AZM90w;2017-05-29-15-18-51;1;28;1,01082992082;True;right;1,3;0,0;-1;right;2,29700016975
AZM90w;2017-05-29-15-18-51;1;29;0,804951374886;False;neither;1,9;0,0;-1;neither;1,44099998474
AZM90w;2017-05-29-15-18-51;1;30;0,83419048408;True;both;1,3;-0,15;-1;both;0,763000011444
AZM90w;2017-05-29-15-18-51;1;31;0,807028145838;False;left;1,7;0,15;-1;left;0,921999931335
AZM90w;2017-05-29-15-18-51;1;32;1,16218216669;True;neither;1,5;0,0;1;neither;1,5110001564
AZM90w;2017-05-29-15-18-51;1;33;0,808157434703;False;right;1,3;-0,15;-1;right;0,551000118256
AZM90w;2017-05-29-15-18-51;1;34;1,10097960936;True;neither;1,3;0,15;1;right;4,4240000248
AZM90w;2017-05-29-15-18-51;1;35;0,877244824417;False;neither;1,5;0,15;1;neither;1,32999992371
AZM90w;2017-05-29-15-18-51;1;36;1,04844121257;True;left;1,1;0,0;-1;left;1,29699993134
AZM90w;2017-05-29-15-18-51;1;37;1,1483995297;False;right;1,1;0,15;-1;right;0,930999994278
AZM90w;2017-05-29-15-18-51;1;38;1,04781553785;True;both;1,7;0,0;1;left;0,478999853134
AZM90w;2017-05-29-15-18-51;1;39;0,965861295095;False;left;1,5;-0,15;1;left;0,607999801636
AZM90w;2017-05-29-15-18-51;1;40;1,13775081026;True;right;1,5;0,15;-1;right;0,737999916077
AZM90w;2017-05-29-15-18-51;1;41;0,810742840535;False;right;1,9;-0,15;-1;right;1,41399979591
AZM90w;2017-05-29-15-18-51;1;42;1,11364899246;True;right;1,7;-0,15;1;neither;0,874000072479
AZM90w;2017-05-29-15-18-51;1;43;1,14596356875;False;right;1,9;0,15;-1;right;0,81500005722
AZM90w;2017-05-29-15-18-51;1;44;1,16250845981;True;both;1,1;-0,15;-1;both;0,0
AZM90w;2017-05-29-15-18-51;1;45;0,898626956588;False;both;1,1;0,0;1;both;0,451000213623
AZM90w;2017-05-29-15-18-51;2;1;1,07418394026;True;neither;1,7;0,15;1;neither;0,637000083923
AZM90w;2017-05-29-15-18-51;2;2;0,97594997322;False;right;1,9;0,0;-1;neither;0,833999872208
AZM90w;2017-05-29-15-18-51;2;3;1,18608630585;True;both;1,3;0,0;1;both;0,56299996376
AZM90w;2017-05-29-15-18-51;2;4;1,10785190648;False;both;1,1;0,15;-1;both;0,62299990654
AZM90w;2017-05-29-15-18-51;2;5;0,909062033636;True;left;1,9;0,0;1;left;0,632000207901
AZM90w;2017-05-29-15-18-51;2;6;0,818240657852;False;right;1,3;0,0;-1;neither;0,834000110626
AZM90w;2017-05-29-15-18-51;2;7;1,16210430415;True;left;1,5;0,15;1;left;0,522000074387
AZM90w;2017-05-29-15-18-51;2;8;1,15820425128;False;left;1,1;0,15;1;left;0,65499997139
AZM90w;2017-05-29-15-18-51;2;9;1,11601688052;True;both;1,7;0,15;-1;both;1,27999997139
AZM90w;2017-05-29-15-18-51;2;10;1,02600219485;False;right;1,9;-0,15;-1;neither;0,459000110626
AZM90w;2017-05-29-15-18-51;2;11;0,801958550788;True;neither;1,3;0,0;-1;neither;0,93799996376
AZM90w;2017-05-29-15-18-51;2;12;1,08791027155;False;right;1,9;0,15;-1;neither;1,23699998856
AZM90w;2017-05-29-15-18-51;2;13;1,12779825402;True;neither;1,7;-0,15;1;neither;0,966000080109
AZM90w;2017-05-29-15-18-51;2;14;1,08093306831;False;neither;1,3;-0,15;-1;neither;2,25699996948
AZM90w;2017-05-29-15-18-51;2;15;0,825969558925;True;right;1,1;0,0;-1;neither;1,34699988365
AZM90w;2017-05-29-15-18-51;2;16;0,950112800907;False;left;1,5;0,0;-1;neither;0,6890001297
AZM90w;2017-05-29-15-18-51;2;17;1,03954427865;True;right;1,5;0,0;-1;neither;0,550999879837
AZM90w;2017-05-29-15-18-51;2;18;0,893590104458;False;left;1,7;-0,15;-1;neither;0,80999994278
AZM90w;2017-05-29-15-18-51;2;19;0,964577787533;True;right;1,1;0,0;-1;right;0,648000001907
AZM90w;2017-05-29-15-18-51;2;20;0,972251238075;False;left;1,3;-0,15;-1;neither;1,67899990082
AZM90w;2017-05-29-15-18-51;2;21;1,19499278561;True;both;1,7;-0,15;1;neither;1,73900008202
AZM90w;2017-05-29-15-18-51;2;22;0,934393458817;False;neither;1,9;-0,15;1;neither;0,845999956131
AZM90w;2017-05-29-15-18-51;2;23;1,14549922708;True;both;1,5;-0,15;-1;both;0,436000108719
AZM90w;2017-05-29-15-18-51;2;24;1,14374817711;False;left;1,7;-0,15;1;both;0,47400021553
AZM90w;2017-05-29-15-18-51;2;25;0,923209931004;True;left;1,1;0,0;1;neither;0,446000099182
AZM90w;2017-05-29-15-18-51;2;26;0,943947711856;False;right;1,7;-0,15;1;neither;0,636000156403
AZM90w;2017-05-29-15-18-51;2;27;1,10098399104;True;left;1,5;0,15;-1;neither;1,09500002861
AZM90w;2017-05-29-15-18-51;2;28;0,828224947345;False;right;1,3;0,0;-1;neither;1,02099990845
AZM90w;2017-05-29-15-18-51;2;29;1,02544441107;True;neither;1,9;0,0;-1;neither;1,02700018883
AZM90w;2017-05-29-15-18-51;2;30;0,893028408174;False;both;1,3;-0,15;1;both;0,565999984741
AZM90w;2017-05-29-15-18-51;2;31;0,901225823661;True;left;1,7;0,15;1;left;0,560000181198
AZM90w;2017-05-29-15-18-51;2;32;1,12961539441;False;neither;1,5;0,0;-1;neither;1,93799996376
AZM90w;2017-05-29-15-18-51;2;33;1,18600943703;True;right;1,3;-0,15;-1;neither;0,426999807358
AZM90w;2017-05-29-15-18-51;2;34;0,901861617415;False;neither;1,3;0,15;1;neither;0,681999921799
AZM90w;2017-05-29-15-18-51;2;35;1,17505240918;True;neither;1,5;0,15;-1;neither;0,96799993515
AZM90w;2017-05-29-15-18-51;2;36;0,860648364912;False;left;1,1;0,0;1;neither;1,01200008392
AZM90w;2017-05-29-15-18-51;2;37;1,13415279783;True;right;1,1;0,15;1;right;0,526000022888
AZM90w;2017-05-29-15-18-51;2;38;1,14657943584;False;both;1,7;0,0;-1;both;0,357999801636
AZM90w;2017-05-29-15-18-51;2;39;0,948041374113;True;left;1,5;-0,15;-1;neither;0,590000152588
AZM90w;2017-05-29-15-18-51;2;40;1,10762231768;False;right;1,5;0,15;1;right;0,488000154495
AZM90w;2017-05-29-15-18-51;2;41;0,921618961551;True;right;1,9;-0,15;1;right;7,64400005341
AZM90w;2017-05-29-15-18-51;2;42;0,840165872734;False;right;1,7;-0,15;1;neither;0,388999938965
AZM90w;2017-05-29-15-18-51;2;43;0,978367308897;True;right;1,9;0,15;-1;neither;0,916999816895
AZM90w;2017-05-29-15-18-51;2;44;0,933258229627;False;both;1,1;-0,15;-1;both;0,390000104904
AZM90w;2017-05-29-15-18-51;2;45;0,847320900648;True;both;1,1;0,0;1;neither;0,586999893188
AZM90w;2017-05-29-15-18-51;3;1;0,98933251678;False;right;1,5;0,15;1;neither;0,384999990463
AZM90w;2017-05-29-15-18-51;3;2;1,06885257376;True;both;1,1;0,15;-1;right;4,38399982452
AZM90w;2017-05-29-15-18-51;3;3;1,11076422892;False;neither;1,7;0,15;-1;neither;1,01900005341
AZM90w;2017-05-29-15-18-51;3;4;1,04988732737;True;neither;1,9;-0,15;-1;neither;0,568000078201
AZM90w;2017-05-29-15-18-51;3;5;1,10795688864;False;both;1,1;-0,15;1;both;0,31299996376
AZM90w;2017-05-29-15-18-51;3;6;0,818107418461;True;left;1,5;-0,15;-1;neither;0,348999977112
AZM90w;2017-05-29-15-18-51;3;7;1,10380352742;False;left;1,3;0,15;-1;left;0,324000120163
AZM90w;2017-05-29-15-18-51;3;8;1,01154417923;True;right;1,1;0,0;-1;right;0,337000131607
AZM90w;2017-05-29-15-18-51;3;9;1,1714376021;False;right;1,1;-0,15;-1;right;0,649999856949
AZM90w;2017-05-29-15-18-51;3;10;0,868779019841;True;neither;1,5;-0,15;-1;neither;0,785000085831
AZM90w;2017-05-29-15-18-51;3;11;1,05619709336;False;left;1,3;-0,15;-1;left;0,4359998703
AZM90w;2017-05-29-15-18-51;3;12;1,18899195423;True;both;1,7;0,0;-1;neither;0,424999952316
AZM90w;2017-05-29-15-18-51;3;13;1,1993078957;False;right;1,3;-0,15;1;right;0,462999820709
AZM90w;2017-05-29-15-18-51;3;14;1,01807162147;True;right;1,3;0,15;-1;right;0,387000083923
AZM90w;2017-05-29-15-18-51;3;15;0,851931045711;False;both;1,7;-0,15;1;both;0,56200003624
AZM90w;2017-05-29-15-18-51;3;16;0,94842391176;True;left;1,3;0,0;-1;left;0,548000097275
AZM90w;2017-05-29-15-18-51;3;17;1,17345631458;False;right;1,5;0,0;-1;right;0,43700003624
AZM90w;2017-05-29-15-18-51;3;18;1,15702388484;True;right;1,5;0,15;1;neither;0,384000062943
AZM90w;2017-05-29-15-18-51;3;19;1,16557779246;False;right;1,9;0,0;-1;neither;0,546000003815
AZM90w;2017-05-29-15-18-51;3;20;1,16275134963;True;left;1,9;0,15;1;left;0,427999973297
AZM90w;2017-05-29-15-18-51;3;21;1,09439216651;False;left;1,1;0,0;1;left;0,294999837875
AZM90w;2017-05-29-15-18-51;3;22;0,906008225259;True;neither;1,1;-0,15;1;neither;0,637000083923
AZM90w;2017-05-29-15-18-51;3;23;1,18696654995;False;right;1,7;-0,15;-1;neither;0,838999986649
AZM90w;2017-05-29-15-18-51;3;24;0,915044973602;True;left;1,9;0,15;1;left;0,555000066757
AZM90w;2017-05-29-15-18-51;3;25;1,16805855185;False;neither;1,5;0,15;-1;neither;0,395999908447
AZM90w;2017-05-29-15-18-51;3;26;0,938801368672;True;left;1,3;0,0;-1;left;0,355999946594
AZM90w;2017-05-29-15-18-51;3;27;1,06370329735;False;right;1,9;0,0;1;neither;2,61800003052
AZM90w;2017-05-29-15-18-51;3;28;1,19022875301;True;left;1,1;0,15;-1;left;0,344000101089
AZM90w;2017-05-29-15-18-51;3;29;0,829743088748;False;right;1,7;0,15;1;neither;0,368000030518
AZM90w;2017-05-29-15-18-51;3;30;1,16631258029;True;left;1,5;-0,15;-1;left;0,513000011444
AZM90w;2017-05-29-15-18-51;3;31;0,867498232358;False;right;1,9;-0,15;1;neither;1,37299990654
AZM90w;2017-05-29-15-18-51;3;32;1,0731346757;True;left;1,5;0,15;-1;neither;0,721999883652
AZM90w;2017-05-29-15-18-51;3;33;0,891926673574;False;left;1,9;-0,15;1;right;0,409999847412
AZM90w;2017-05-29-15-18-51;3;34;1,03397482824;True;left;1,7;0,15;1;both;0,0
AZM90w;2017-05-29-15-18-51;3;35;0,901825334337;False;both;1,3;0,15;-1;neither;0,0
AZM90w;2017-05-29-15-18-51;3;36;1,12678063006;True;left;1,7;0,0;-1;right;0,0
AZM90w;2017-05-29-15-18-51;3;37;0,951652651797;False;right;1,3;0,0;-1;left;0,0
AZM90w;2017-05-29-15-18-51;3;38;0,884905395454;True;left;1,7;-0,15;1;left;4,26300001144
AZM90w;2017-05-29-15-18-51;3;39;1,04140642375;False;neither;1,7;-0,15;-1;neither;0,855999946594
AZM90w;2017-05-29-15-18-51;3;40;1,01972274416;True;neither;1,1;0,0;-1;neither;0,825000047684
AZM90w;2017-05-29-15-18-51;3;41;1,0071298844;False;left;1,7;-0,15;-1;neither;0,384000062943
AZM90w;2017-05-29-15-18-51;3;42;1,17663038159;True;left;1,1;0,0;1;neither;0,530999898911
AZM90w;2017-05-29-15-18-51;3;43;0,838408460438;False;right;1,7;0,15;1;right;0,473999977112
AZM90w;2017-05-29-15-18-51;3;44;1,08543493834;True;both;1,1;0,0;-1;both;0,480000019073
AZM90w;2017-05-29-15-18-51;3;45;0,810292779133;False;left;1,3;-0,15;1;neither;0,582000017166
AZM90w;2017-05-29-15-18-51;4;1;0,964985750982;True;right;1,5;0,15;1;right;1,12700009346
AZM90w;2017-05-29-15-18-51;4;2;0,998156377189;False;both;1,1;0,15;-1;both;1,14499998093
AZM90w;2017-05-29-15-18-51;4;3;0,818675466039;True;neither;1,7;0,15;1;neither;0,638999938965
AZM90w;2017-05-29-15-18-51;4;4;0,910168107485;False;neither;1,9;-0,15;-1;neither;1,03899979591
AZM90w;2017-05-29-15-18-51;4;5;1,12389433216;True;both;1,1;-0,15;1;neither;0,332000017166
AZM90w;2017-05-29-15-18-51;4;6;1,18976726568;False;left;1,5;-0,15;-1;neither;0,546000003815
AZM90w;2017-05-29-15-18-51;4;7;1,01002891909;True;left;1,3;0,15;-1;left;0,430999994278
AZM90w;2017-05-29-15-18-51;4;8;0,825009965296;False;right;1,1;0,0;1;right;0,490000009537
AZM90w;2017-05-29-15-18-51;4;9;1,0398602808;True;right;1,1;-0,15;1;right;0,346999883652
AZM90w;2017-05-29-15-18-51;4;10;1,18130722143;False;neither;1,5;-0,15;1;neither;0,766000032425
AZM90w;2017-05-29-15-18-51;4;11;0,879099375672;True;left;1,3;-0,15;-1;neither;0,332000017166
AZM90w;2017-05-29-15-18-51;4;12;0,948029020971;False;both;1,7;0,0;1;both;0,309000015259
AZM90w;2017-05-29-15-18-51;4;13;1,10336260714;True;right;1,3;-0,15;1;neither;0,55999994278
AZM90w;2017-05-29-15-18-51;4;14;1,17136621556;False;right;1,3;0,15;1;right;0,328000068665
AZM90w;2017-05-29-15-18-51;4;15;1,19297607502;True;both;1,7;-0,15;-1;both;0,0
AZM90w;2017-05-29-15-18-51;4;16;0,86284589702;False;left;1,3;0,0;1;neither;1,22199988365
AZM90w;2017-05-29-15-18-51;4;17;0,889819533451;True;right;1,5;0,0;1;right;0,426000118256
AZM90w;2017-05-29-15-18-51;4;18;1,16079944316;False;right;1,5;0,15;-1;right;1,09699988365
AZM90w;2017-05-29-15-18-51;4;19;0,837768531567;True;right;1,9;0,0;1;right;0,935000181198
AZM90w;2017-05-29-15-18-51;4;20;1,17064930759;False;left;1,9;0,15;1;neither;0,486000061035
AZM90w;2017-05-29-15-18-51;4;21;1,0028273639;True;left;1,1;0,0;-1;left;0,340000152588
AZM90w;2017-05-29-15-18-51;4;22;1,0908177749;False;neither;1,1;-0,15;1;neither;0,37700009346
AZM90w;2017-05-29-15-18-51;4;23;0,838906394823;True;right;1,7;-0,15;-1;right;0,671000003815
AZM90w;2017-05-29-15-18-51;4;24;1,04880870683;False;left;1,9;0,15;1;left;0,551000118256
AZM90w;2017-05-29-15-18-51;4;25;1,05490103686;True;neither;1,5;0,15;-1;neither;1,04600000381
AZM90w;2017-05-29-15-18-51;4;26;0,847155825526;False;left;1,3;0,0;1;neither;0,342000007629
AZM90w;2017-05-29-15-18-51;4;27;0,832646268502;True;right;1,9;0,0;-1;right;0,695999860764
AZM90w;2017-05-29-15-18-51;4;28;0,985913714282;False;left;1,1;0,15;-1;left;0,322000026703
AZM90w;2017-05-29-15-18-51;4;29;0,944782468071;True;right;1,7;0,15;-1;right;0,423000097275
AZM90w;2017-05-29-15-18-51;4;30;1,19577672991;False;left;1,5;-0,15;1;both;0,325000047684
AZM90w;2017-05-29-15-18-51;4;31;0,996465237561;True;right;1,9;-0,15;-1;neither;0,422999858856
AZM90w;2017-05-29-15-18-51;4;32;1,00424158345;False;left;1,5;0,15;1;left;0,448999881744
AZM90w;2017-05-29-15-18-51;4;33;0,927671997886;True;left;1,9;-0,15;-1;neither;0,381000041962
AZM90w;2017-05-29-15-18-51;4;34;0,835533793839;False;left;1,7;0,15;1;neither;1,60299992561
AZM90w;2017-05-29-15-18-51;4;35;0,801957361723;True;both;1,3;0,15;-1;both;0,323999881744
AZM90w;2017-05-29-15-18-51;4;36;0,940213180622;False;left;1,7;0,0;-1;neither;0,452000141144
AZM90w;2017-05-29-15-18-51;4;37;0,858954428363;True;right;1,3;0,0;1;both;0,334999799728
AZM90w;2017-05-29-15-18-51;4;38;0,891442511198;False;left;1,7;-0,15;-1;neither;0,34500002861
AZM90w;2017-05-29-15-18-51;4;39;1,16657749369;True;neither;1,7;-0,15;1;neither;0,411999940872
AZM90w;2017-05-29-15-18-51;4;40;0,804443517811;False;neither;1,1;0,0;1;neither;0,906000137329
AZM90w;2017-05-29-15-18-51;4;41;1,11968739588;True;left;1,7;-0,15;1;both;0,0480000972748
AZM90w;2017-05-29-15-18-51;4;42;0,92940876198;False;left;1,1;0,0;1;left;0,34700012207
AZM90w;2017-05-29-15-18-51;4;43;1,19557534931;True;right;1,7;0,15;1;neither;1,07100009918
AZM90w;2017-05-29-15-18-51;4;44;0,937598280328;False;both;1,1;0,0;1;both;0,0
AZM90w;2017-05-29-15-18-51;4;45;0,810905950512;True;left;1,3;-0,15;1;both;0,144999980927
AZM90w;2017-05-29-15-18-51;5;1;1,10645728799;False;both;1,1;0,0;-1;neither;0,582999944687
AZM90w;2017-05-29-15-18-51;5;2;1,15852622601;True;both;1,1;-0,15;1;both;0,259000062943
AZM90w;2017-05-29-15-18-51;5;3;0,973407873301;False;right;1,7;0,15;-1;neither;0,851999998093
AZM90w;2017-05-29-15-18-51;5;4;1,16393476868;True;left;1,9;0,15;-1;neither;1,27200007439
AZM90w;2017-05-29-15-18-51;5;5;1,1319625154;False;both;1,7;-0,15;1;neither;1,62400007248
AZM90w;2017-05-29-15-18-51;5;6;0,929258275522;True;neither;1,9;0,0;1;neither;0,84700012207
AZM90w;2017-05-29-15-18-51;5;7;0,948611669714;False;left;1,5;-0,15;1;neither;1,02600002289
AZM90w;2017-05-29-15-18-51;5;8;0,942593175112;True;right;1,7;0,0;-1;right;1,71899986267
AZM90w;2017-05-29-15-18-51;5;9;1,00423583156;False;left;1,5;0,15;1;neither;1,04299998283
AZM90w;2017-05-29-15-18-51;5;10;1,08197499423;True;neither;1,5;-0,15;-1;neither;0,862999916077
AZM90w;2017-05-29-15-18-51;5;11;0,858734292331;False;neither;1,1;0,15;-1;neither;0,68799996376
AZM90w;2017-05-29-15-18-51;5;12;1,07937108948;True;left;1,7;0,0;-1;left;0,408999919891
AZM90w;2017-05-29-15-18-51;5;13;0,936935958787;False;neither;1,3;0,15;1;neither;0,565999984741
AZM90w;2017-05-29-15-18-51;5;14;1,08938729191;True;left;1,5;0,15;1;left;0,600999832153
AZM90w;2017-05-29-15-18-51;5;15;1,02459087255;False;right;1,3;0,0;1;right;0,384999990463
AZM90w;2017-05-29-15-18-51;5;16;1,16423028652;True;both;1,3;-0,15;1;both;0,449999809265
AZM90w;2017-05-29-15-18-51;5;17;1,04094643573;False;neither;1,5;0,0;-1;neither;0,482000112534
AZM90w;2017-05-29-15-18-51;5;18;0,877969453678;True;left;1,5;0,0;1;neither;1,13199996948
AZM90w;2017-05-29-15-18-51;5;19;1,17423761762;False;right;1,1;0,15;1;neither;0,962000131607
AZM90w;2017-05-29-15-18-51;5;20;1,1166864519;True;right;1,3;0,15;-1;right;0,410000085831
AZM90w;2017-05-29-15-18-51;5;21;0,844939986585;False;left;1,9;-0,15;-1;both;1,73199987411
AZM90w;2017-05-29-15-18-51;5;22;1,19439672641;True;right;1,7;-0,15;-1;both;0,678999900818
AZM90w;2017-05-29-15-18-51;5;23;0,898016137238;False;right;1,7;0,0;1;neither;0,367000102997
AZM90w;2017-05-29-15-18-51;5;24;1,01212061403;True;right;1,3;0,15;1;neither;0,934000015259
AZM90w;2017-05-29-15-18-51;5;25;1,17054682749;False;left;1,3;0,0;-1;left;0,37700009346
AZM90w;2017-05-29-15-18-51;5;26;1,1168956583;True;left;1,9;0,15;-1;neither;0,855999946594
AZM90w;2017-05-29-15-18-51;5;27;1,11288975536;False;right;1,5;0,15;-1;neither;0,411999940872
AZM90w;2017-05-29-15-18-51;5;28;0,863373747536;True;both;1,5;-0,15;-1;both;0,422999858856
AZM90w;2017-05-29-15-18-51;5;29;0,963633708951;False;left;1,3;0,15;1;left;0,529000043869
AZM90w;2017-05-29-15-18-51;5;30;0,920135728164;True;both;1,7;0,0;1;both;0,416000127792
AZM90w;2017-05-29-15-18-51;5;31;0,862710792657;False;right;1,1;0,15;-1;neither;0,384999990463
AZM90w;2017-05-29-15-18-51;5;32;1,09555419304;True;left;1,3;-0,15;-1;neither;0,782999992371
AZM90w;2017-05-29-15-18-51;5;33;1,19894942616;False;neither;1,1;-0,15;-1;neither;0,842000007629
AZM90w;2017-05-29-15-18-51;5;34;0,881996819855;True;right;1,5;-0,15;-1;right;0,567999839783
AZM90w;2017-05-29-15-18-51;5;35;0,946608440022;False;both;1,1;0,15;1;both;0,411999940872
AZM90w;2017-05-29-15-18-51;5;36;0,922697771991;True;left;1,3;0,15;-1;left;0,342000007629
AZM90w;2017-05-29-15-18-51;5;37;0,813972572186;False;neither;1,5;0,15;-1;neither;2,52999997139
AZM90w;2017-05-29-15-18-51;5;38;0,961584525031;True;both;1,9;-0,15;-1;both;0,420000076294
AZM90w;2017-05-29-15-18-51;5;39;1,16527709351;False;left;1,7;-0,15;1;left;1,20399999619
AZM90w;2017-05-29-15-18-51;5;40;0,815967134265;True;left;1,7;0,15;1;left;1,11900019646
AZM90w;2017-05-29-15-18-51;5;41;0,851398014986;False;left;1,7;0,0;-1;left;0,365999937057
AZM90w;2017-05-29-15-18-51;5;42;1,17734369578;True;neither;1,7;-0,15;1;neither;1,17899990082
AZM90w;2017-05-29-15-18-51;5;43;0,860229733623;False;right;1,5;0,0;-1;right;0,351999998093
AZM90w;2017-05-29-15-18-51;5;44;1,08693413609;True;left;1,1;0,0;-1;neither;1,69499993324
AZM90w;2017-05-29-15-18-51;5;45;1,02565073933;False;right;1,1;-0,15;1;right;0,858999967575
AZM90w;2017-05-29-15-18-51;6;1;0,935567928542;True;both;1,1;0,0;-1;both;0,339999914169
AZM90w;2017-05-29-15-18-51;6;2;0,910604094622;False;both;1,1;-0,15;-1;both;0,357999801636
AZM90w;2017-05-29-15-18-51;6;3;0,988618176756;True;right;1,7;0,15;-1;right;0,517999887466
AZM90w;2017-05-29-15-18-51;6;4;1,05103057607;False;left;1,9;0,15;-1;left;0,37700009346
AZM90w;2017-05-29-15-18-51;6;5;0,982120446359;True;both;1,7;-0,15;1;both;0,18799996376
AZM90w;2017-05-29-15-18-51;6;6;0,873485542972;False;neither;1,9;0,0;-1;neither;0,924999952316
AZM90w;2017-05-29-15-18-51;6;7;1,03250709841;True;left;1,5;-0,15;-1;neither;1,1210000515
AZM90w;2017-05-29-15-18-51;6;8;0,946223471427;False;right;1,7;0,0;-1;right;0,414000034332
AZM90w;2017-05-29-15-18-51;6;9;1,11494337312;True;left;1,5;0,15;1;left;0,528000116348
AZM90w;2017-05-29-15-18-51;6;10;1,1429044829;False;neither;1,5;-0,15;-1;neither;0,596999883652
AZM90w;2017-05-29-15-18-51;6;11;1,04989162869;True;neither;1,1;0,15;-1;neither;0,923000097275
AZM90w;2017-05-29-15-18-51;6;12;1,01849008949;False;left;1,7;0,0;-1;neither;0,390000104904
AZM90w;2017-05-29-15-18-51;6;13;0,892773065619;True;neither;1,3;0,15;-1;neither;0,736000061035
AZM90w;2017-05-29-15-18-51;6;14;0,926761939111;False;left;1,5;0,15;-1;left;0,433000087738
AZM90w;2017-05-29-15-18-51;6;15;1,11387508844;True;right;1,3;0,0;-1;right;0,358999967575
AZM90w;2017-05-29-15-18-51;6;16;1,12901387097;False;both;1,3;-0,15;-1;both;0,353999853134
AZM90w;2017-05-29-15-18-51;6;17;1,058920446;True;neither;1,5;0,0;1;neither;0,595999956131
AZM90w;2017-05-29-15-18-51;6;18;0,819756605924;False;left;1,5;0,0;1;left;0,52799987793
AZM90w;2017-05-29-15-18-51;6;19;0,81964553898;True;right;1,1;0,15;1;right;0,430000066757
AZM90w;2017-05-29-15-18-51;6;20;1,19266047353;False;right;1,3;0,15;1;right;0,233000040054
AZM90w;2017-05-29-15-18-51;6;21;0,982907734681;True;left;1,9;-0,15;1;both;0,542999982834
AZM90w;2017-05-29-15-18-51;6;22;0,890480974283;False;right;1,7;-0,15;1;right;0,424000024796
AZM90w;2017-05-29-15-18-51;6;23;0,992461061843;True;right;1,7;0,0;-1;neither;0,949000120163
AZM90w;2017-05-29-15-18-51;6;24;0,829987798403;False;right;1,3;0,15;1;right;0,371999979019
AZM90w;2017-05-29-15-18-51;6;25;1,06075862268;True;left;1,3;0,0;1;neither;0,382999897003
AZM90w;2017-05-29-15-18-51;6;26;0,974500412892;False;left;1,9;0,15;-1;neither;0,414000034332
AZM90w;2017-05-29-15-18-51;6;27;1,17422344666;True;right;1,5;0,15;1;right;1,77600002289
AZM90w;2017-05-29-15-18-51;6;28;0,849715282055;False;both;1,5;-0,15;-1;both;0,351999998093
AZM90w;2017-05-29-15-18-51;6;29;1,13424359032;True;left;1,3;0,15;-1;left;0,338999986649
AZM90w;2017-05-29-15-18-51;6;30;1,10191007895;False;both;1,7;0,0;-1;both;0,545000076294
AZM90w;2017-05-29-15-18-51;6;31;0,934385785429;True;right;1,1;0,15;-1;neither;0,328000068665
AZM90w;2017-05-29-15-18-51;6;32;1,17503932262;False;left;1,3;-0,15;-1;neither;0,975999832153
AZM90w;2017-05-29-15-18-51;6;33;0,917031970738;True;neither;1,1;-0,15;1;neither;0,582000017166
AZM90w;2017-05-29-15-18-51;6;34;1,14897968808;False;right;1,5;-0,15;-1;neither;0,959999799728
AZM90w;2017-05-29-15-18-51;6;35;1,00058347253;True;both;1,1;0,15;-1;neither;0,740000009537
AZM90w;2017-05-29-15-18-51;6;36;1,19503146591;False;left;1,3;0,15;-1;left;0,417000055313
AZM90w;2017-05-29-15-18-51;6;37;1,12074412231;True;neither;1,5;0,15;-1;neither;0,559000015259
AZM90w;2017-05-29-15-18-51;6;38;1,0875061617;False;both;1,9;-0,15;-1;neither;0,375999927521
AZM90w;2017-05-29-15-18-51;6;39;1,04710578474;True;left;1,7;-0,15;-1;neither;0,328000068665
AZM90w;2017-05-29-15-18-51;6;40;1,10642778465;False;left;1,7;0,15;-1;neither;0,395000219345
AZM90w;2017-05-29-15-18-51;6;41;1,02161790801;True;left;1,7;0,0;1;neither;0,516000032425
AZM90w;2017-05-29-15-18-51;6;42;1,09032993837;False;neither;1,7;-0,15;1;neither;2,23900008202
AZM90w;2017-05-29-15-18-51;6;43;0,885490179921;True;right;1,5;0,0;1;neither;0,381999969482
AZM90w;2017-05-29-15-18-51;6;44;0,978973512495;False;left;1,1;0,0;1;neither;0,351999998093
AZM90w;2017-05-29-15-18-51;6;45;1,01716789848;True;right;1,1;-0,15;1;left;0,838000059128
AZM90w;2017-05-29-15-18-51;7;1;0,858919129832;False;left;1,7;0,0;-1;neither;0,387000083923
AZM90w;2017-05-29-15-18-51;7;2;0,921820179868;True;left;1,9;0,0;-1;neither;0,588000059128
AZM90w;2017-05-29-15-18-51;7;3;1,09740812687;False;left;1,5;0,15;1;left;0,0
AZM90w;2017-05-29-15-18-51;7;4;0,899045358958;True;left;1,5;0,15;1;neither;0,285000085831
AZM90w;2017-05-29-15-18-51;7;5;1,15647506765;False;right;1,9;0,15;1;neither;1,11800003052
AZM90w;2017-05-29-15-18-51;7;6;0,897245823287;True;right;1,5;0,0;-1;right;0,387999773026
AZM90w;2017-05-29-15-18-51;7;7;0,879762401548;False;both;1,3;-0,15;1;both;0,0
AZM90w;2017-05-29-15-18-51;7;8;1,14226923341;True;neither;1,1;0,15;1;neither;0,829999923706
AZM90w;2017-05-29-15-18-51;7;9;1,09957605228;False;right;1,9;0,0;-1;neither;0,680000066757
AZM90w;2017-05-29-15-18-51;7;10;0,922569415496;True;right;1,7;-0,15;-1;right;0,566999912262
AZM90w;2017-05-29-15-18-51;7;11;0,877474608557;False;both;1,7;-0,15;-1;both;0,473000049591
AZM90w;2017-05-29-15-18-51;7;12;0,800033317023;True;both;1,5;-0,15;1;both;0,582999944687
AZM90w;2017-05-29-15-18-51;7;13;1,09876341268;False;left;1,3;0,15;1;neither;1,45399999619
AZM90w;2017-05-29-15-18-51;7;14;1,19697471475;True;left;1,1;0,0;-1;left;0,826999902725
AZM90w;2017-05-29-15-18-51;7;15;0,834896071897;False;both;1,5;0,0;-1;both;0,509999990463
AZM90w;2017-05-29-15-18-51;7;16;1,07681551548;True;right;1,7;0,0;-1;right;0,483999967575
AZM90w;2017-05-29-15-18-51;7;17;1,12076539253;False;left;1,9;-0,15;1;left;0,595999956131
AZM90w;2017-05-29-15-18-51;7;18;1,18042936795;True;left;1,3;0,0;1;left;0,358000040054
AZM90w;2017-05-29-15-18-51;7;19;0,80534181401;False;neither;1,9;-0,15;-1;neither;0,892000198364
AZM90w;2017-05-29-15-18-51;7;20;0,908866793477;True;left;1,1;-0,15;-1;left;0,483000040054
AZM90w;2017-05-29-15-18-51;7;21;1,11125882227;False;left;1,3;0,0;1;left;0,366999864578
AZM90w;2017-05-29-15-18-51;7;22;1,09673195611;True;neither;1,5;-0,15;1;neither;0,599999904633
AZM90w;2017-05-29-15-18-51;7;23;1,03973999122;False;both;1,7;0,0;-1;both;0,3109998703
AZM90w;2017-05-29-15-18-51;7;24;0,912602819143;True;left;1,9;-0,15;-1;neither;0,447999954224
AZM90w;2017-05-29-15-18-51;7;25;0,869053872445;False;neither;1,7;0,0;-1;neither;0,674000024796
AZM90w;2017-05-29-15-18-51;7;26;1,12811334706;True;right;1,5;0,0;1;right;0,332999944687
AZM90w;2017-05-29-15-18-51;7;27;0,976400387744;False;both;1,3;0,0;-1;both;0,430999994278
AZM90w;2017-05-29-15-18-51;7;28;0,861153629964;True;left;1,7;-0,15;-1;neither;0,356000185013
AZM90w;2017-05-29-15-18-51;7;29;1,07314941725;False;both;1,9;0,0;1;left;0,569999933243
AZM90w;2017-05-29-15-18-51;7;30;0,956407029678;True;right;1,5;-0,15;1;right;0,533999919891
AZM90w;2017-05-29-15-18-51;7;31;0,912829617705;False;both;1,5;0,15;1;both;2,1970000267
AZM90w;2017-05-29-15-18-51;7;32;1,04164302028;True;both;1,1;-0,15;-1;both;0,0
AZM90w;2017-05-29-15-18-51;7;33;0,921147340309;False;left;1,5;-0,15;-1;neither;0,391999959946
AZM90w;2017-05-29-15-18-51;7;34;1,0541107579;True;right;1,1;0,0;-1;right;0,0
AZM90w;2017-05-29-15-18-51;7;35;1,19037423467;False;right;1,3;0,0;1;right;0,467000007629
AZM90w;2017-05-29-15-18-51;7;36;1,05539484134;True;left;1,1;0,15;1;neither;0,841000080109
AZM90w;2017-05-29-15-18-51;7;37;0,931490059158;False;right;1,3;0,0;-1;neither;0,615000009537
AZM90w;2017-05-29-15-18-51;7;38;1,1793293794;True;right;1,3;0,15;1;neither;0,720999956131
AZM90w;2017-05-29-15-18-51;7;39;1,08662137068;False;right;1,7;-0,15;1;neither;0,428999900818
AZM90w;2017-05-29-15-18-51;7;40;1,1230747128;True;neither;1,7;0,15;1;neither;0,585000038147
AZM90w;2017-05-29-15-18-51;7;41;0,851195312271;False;right;1,3;-0,15;-1;neither;0,646999835968
AZM90w;2017-05-29-15-18-51;7;42;0,984092664451;True;neither;1,3;-0,15;-1;neither;0,4359998703
AZM90w;2017-05-29-15-18-51;7;43;0,945828878263;False;right;1,3;0,15;-1;right;0,634999990463
AZM90w;2017-05-29-15-18-51;7;44;1,08202438126;True;right;1,9;0,15;1;right;0,338999986649
AZM90w;2017-05-29-15-18-51;7;45;0,952747449493;False;left;1,9;0,0;-1;neither;0,641000032425
AZM90w;2017-05-29-15-18-51;8;1;1,17591741396;True;left;1,7;0,0;1;left;0,5
AZM90w;2017-05-29-15-18-51;8;2;0,859874994824;False;left;1,9;0,0;-1;left;0,419000148773
AZM90w;2017-05-29-15-18-51;8;3;0,987706233838;True;left;1,5;0,15;-1;left;0,378999948502
AZM90w;2017-05-29-15-18-51;8;4;1,17860422347;False;left;1,5;0,15;-1;left;0,397000074387
AZM90w;2017-05-29-15-18-51;8;5;1,10927351216;True;right;1,9;0,15;-1;both;0,648999929428
AZM90w;2017-05-29-15-18-51;8;6;1,00738601846;False;right;1,5;0,0;-1;right;0,454999923706
AZM90w;2017-05-29-15-18-51;8;7;1,08368872379;True;both;1,3;-0,15;1;both;0,391000032425
AZM90w;2017-05-29-15-18-51;8;8;1,13273962946;False;neither;1,1;0,15;-1;neither;0,50200009346
AZM90w;2017-05-29-15-18-51;8;9;0,889593570915;True;right;1,9;0,0;1;right;0,381000041962
AZM90w;2017-05-29-15-18-51;8;10;0,897383056554;False;right;1,7;-0,15;1;right;0,480000019073
AZM90w;2017-05-29-15-18-51;8;11;0,933094429233;True;both;1,7;-0,15;1;both;0,346999883652
AZM90w;2017-05-29-15-18-51;8;12;0,89349082511;False;both;1,5;-0,15;1;both;0,0
AZM90w;2017-05-29-15-18-51;8;13;0,994898129901;True;left;1,3;0,15;-1;left;0,0
AZM90w;2017-05-29-15-18-51;8;14;0,829290113402;False;left;1,1;0,0;1;left;0,5
AZM90w;2017-05-29-15-18-51;8;15;0,881502318807;True;both;1,5;0,0;1;both;0,525000095367
AZM90w;2017-05-29-15-18-51;8;16;1,06806626021;False;right;1,7;0,0;-1;neither;0,376000165939
AZM90w;2017-05-29-15-18-51;8;17;1,08110867881;True;left;1,9;-0,15;1;left;0,491999864578
AZM90w;2017-05-29-15-18-51;8;18;1,02224034349;False;left;1,3;0,0;-1;left;0,396000146866
AZM90w;2017-05-29-15-18-51;8;19;0,862360530486;True;neither;1,9;-0,15;-1;neither;0,868999958038
AZM90w;2017-05-29-15-18-51;8;20;0,885334932959;False;left;1,1;-0,15;1;neither;0,555999994278
AZM90w;2017-05-29-15-18-51;8;21;0,880857733413;True;left;1,3;0,0;-1;left;0,0
AZM90w;2017-05-29-15-18-51;8;22;0,902883369199;False;neither;1,5;-0,15;1;neither;0,491000175476
AZM90w;2017-05-29-15-18-51;8;23;0,849510269215;True;both;1,7;0,0;1;both;0,0960001945496
AZM90w;2017-05-29-15-18-51;8;24;0,934635964785;False;left;1,9;-0,15;-1;neither;0,371000051498
AZM90w;2017-05-29-15-18-51;8;25;1,11218929176;True;neither;1,7;0,0;1;neither;0,382999897003
AZM90w;2017-05-29-15-18-51;8;26;0,978170279967;False;right;1,5;0,0;1;both;0,453000068665
AZM90w;2017-05-29-15-18-51;8;27;1,09643662667;True;both;1,3;0,0;-1;both;0,308000087738
AZM90w;2017-05-29-15-18-51;8;28;0,825400468929;False;left;1,7;-0,15;-1;neither;0,404000043869
AZM90w;2017-05-29-15-18-51;8;29;0,876814955661;True;both;1,9;0,0;1;both;0,471999883652
AZM90w;2017-05-29-15-18-51;8;30;1,11091986392;False;right;1,5;-0,15;1;right;0,697999954224
AZM90w;2017-05-29-15-18-51;8;31;1,08023177267;True;both;1,5;0,15;-1;both;0,394000053406
AZM90w;2017-05-29-15-18-51;8;32;1,05925563823;False;both;1,1;-0,15;-1;both;0,52799987793
AZM90w;2017-05-29-15-18-51;8;33;0,991445903858;True;left;1,5;-0,15;-1;left;0,480999946594
AZM90w;2017-05-29-15-18-51;8;34;1,09971709666;False;right;1,1;0,0;1;neither;0,552999973297
AZM90w;2017-05-29-15-18-51;8;35;1,19435760811;True;right;1,3;0,0;-1;neither;0,358999967575
AZM90w;2017-05-29-15-18-51;8;36;1,13997920533;False;left;1,1;0,15;-1;neither;1,00900006294
AZM90w;2017-05-29-15-18-51;8;37;1,03922967788;True;right;1,3;0,0;1;right;0,480000019073
AZM90w;2017-05-29-15-18-51;8;38;1,02503950931;False;right;1,3;0,15;1;right;0,470999956131
AZM90w;2017-05-29-15-18-51;8;39;0,965709666095;True;right;1,7;-0,15;-1;neither;0,444999933243
AZM90w;2017-05-29-15-18-51;8;40;0,962248398381;False;neither;1,7;0,15;1;neither;0,508999824524
AZM90w;2017-05-29-15-18-51;8;41;0,959482114665;True;right;1,3;-0,15;-1;neither;0,762000083923
AZM90w;2017-05-29-15-18-51;8;42;1,08442886979;False;neither;1,3;-0,15;1;neither;0,667000055313
AZM90w;2017-05-29-15-18-51;8;43;0,968611241219;True;right;1,3;0,15;1;right;0,790000200272
AZM90w;2017-05-29-15-18-51;8;44;0,998922200628;False;right;1,9;0,15;-1;neither;0,599999904633
AZM90w;2017-05-29-15-18-51;8;45;1,12280488596;True;left;1,9;0,0;1;neither;0,324999809265
AZM90w;2017-05-29-15-18-51;9;1;0,860152757602;False;left;1,1;-0,15;-1;neither;0,342000007629
AZM90w;2017-05-29-15-18-51;9;2;0,840932765371;True;left;1,9;0,15;1;neither;0,43499994278
AZM90w;2017-05-29-15-18-51;9;3;1,03255922386;False;left;1,5;-0,15;1;both;0,365999937057
AZM90w;2017-05-29-15-18-51;9;4;1,19239896216;True;right;1,5;0,0;1;right;0,362999916077
AZM90w;2017-05-29-15-18-51;9;5;0,890589118374;False;left;1,3;-0,15;1;left;0,207000017166
AZM90w;2017-05-29-15-18-51;9;6;1,01717614109;True;left;1,7;0,15;1;left;0,331000089645
AZM90w;2017-05-29-15-18-51;9;7;1,0636029896;False;neither;1,3;0,0;1;neither;0,766000032425
AZM90w;2017-05-29-15-18-51;9;8;0,825094625213;True;right;1,5;0,15;1;neither;0,771000146866
AZM90w;2017-05-29-15-18-51;9;9;0,982483257203;False;right;1,7;0,15;-1;both;1,60799980164
AZM90w;2017-05-29-15-18-51;9;10;1,17437742909;True;left;1,7;-0,15;1;left;3,29800009727
AZM90w;2017-05-29-15-18-51;9;11;0,994602265663;False;left;1,5;0,15;1;left;0,665999889374
AZM90w;2017-05-29-15-18-51;9;12;0,873201601719;True;right;1,9;0,15;1;right;0,366999864578
AZM90w;2017-05-29-15-18-51;9;13;0,870833660128;False;right;1,3;0,0;-1;neither;0,37099981308
AZM90w;2017-05-29-15-18-51;9;14;1,14906571689;True;left;1,1;0,0;1;neither;0,483999967575
AZM90w;2017-05-29-15-18-51;9;15;0,836745635218;False;both;1,3;0,15;-1;both;0,578999996185
AZM90w;2017-05-29-15-18-51;9;16;0,870557861052;True;neither;1,9;0,15;1;neither;0,729000091553
AZM90w;2017-05-29-15-18-51;9;17;1,14465426703;False;left;1,3;-0,15;1;left;0,454999923706
AZM90w;2017-05-29-15-18-51;9;18;0,819234391703;True;neither;1,1;-0,15;-1;neither;0,391000032425
AZM90w;2017-05-29-15-18-51;9;19;0,998711642327;False;neither;1,3;-0,15;1;neither;0,379999876022
AZM90w;2017-05-29-15-18-51;9;20;1,16769692008;True;left;1,1;0,15;1;neither;0,389999866486
AZM90w;2017-05-29-15-18-51;9;21;1,04838682915;False;both;1,3;0,0;1;neither;1,09400010109
AZM90w;2017-05-29-15-18-51;9;22;1,05439665185;True;both;1,7;0,15;1;both;0,34299993515
AZM90w;2017-05-29-15-18-51;9;23;1,15692317824;False;left;1,3;0,15;1;left;0,326999902725
AZM90w;2017-05-29-15-18-51;9;24;1,05803247153;True;both;1,3;-0,15;-1;neither;0,361000061035
AZM90w;2017-05-29-15-18-51;9;25;1,0753983038;False;neither;1,7;-0,15;1;neither;1,15199995041
AZM90w;2017-05-29-15-18-51;9;26;0,837371068668;True;right;1,5;0,0;1;neither;0,546000003815
AZM90w;2017-05-29-15-18-51;9;27;0,966109537547;False;right;1,3;0,15;-1;neither;0,542999982834
AZM90w;2017-05-29-15-18-51;9;28;1,13192994309;True;both;1,1;-0,15;1;both;0,351999998093
AZM90w;2017-05-29-15-18-51;9;29;0,815139239793;False;both;1,5;-0,15;1;both;0,330000162125
AZM90w;2017-05-29-15-18-51;9;30;0,827057076365;True;left;1,1;0,0;-1;left;0,945999860764
AZM90w;2017-05-29-15-18-51;9;31;0,918871729357;False;right;1,5;-0,15;1;right;0,331000089645
AZM90w;2017-05-29-15-18-51;9;32;1,00440083235;True;both;1,9;-0,15;1;both;0,387999773026
AZM90w;2017-05-29-15-18-51;9;33;0,879208153703;False;left;1,1;-0,15;-1;neither;0,408999919891
AZM90w;2017-05-29-15-18-51;9;34;1,1176862057;True;left;1,9;0,15;1;left;0,486000061035
AZM90w;2017-05-29-15-18-51;9;35;1,10837038141;False;right;1,7;0,0;-1;neither;1,11000013351
AZM90w;2017-05-29-15-18-51;9;36;0,990312316547;True;left;1,3;0,0;1;left;0,0
AZM90w;2017-05-29-15-18-51;9;37;0,976179343177;False;left;1,5;0,0;-1;neither;0,740000009537
AZM90w;2017-05-29-15-18-51;9;38;0,947581451487;True;right;1,1;0,15;-1;right;0,342000007629
AZM90w;2017-05-29-15-18-51;9;39;1,14772870314;False;both;1,5;0,15;-1;left;1,07499980927
AZM90w;2017-05-29-15-18-51;9;40;1,09461316482;True;right;1,1;-0,15;-1;neither;0,769000053406
AZM90w;2017-05-29-15-18-51;9;41;1,07990559789;False;neither;1,9;0,0;-1;neither;0,805000066757
AZM90w;2017-05-29-15-18-51;9;42;0,863015201515;True;left;1,5;0,0;1;neither;0,71799993515
AZM90w;2017-05-29-15-18-51;9;43;0,849792967121;False;left;1,7;-0,15;-1;neither;0,739000082016
AZM90w;2017-05-29-15-18-51;9;44;1,04798678054;True;both;1,1;0,15;-1;both;0,357000112534
AZM90w;2017-05-29-15-18-51;9;45;0,88975902228;False;right;1,3;0,15;-1;left;0,354999780655
AZM90w;2017-05-29-15-18-51;10;1;0,872761621556;True;left;1,1;-0,15;1;left;0,482000112534
AZM90w;2017-05-29-15-18-51;10;2;0,90493984422;False;left;1,9;0,15;1;both;1,94400000572
AZM90w;2017-05-29-15-18-51;10;3;0,99529008696;True;left;1,5;-0,15;1;neither;0,355000019073
AZM90w;2017-05-29-15-18-51;10;4;1,07705882027;False;right;1,5;0,0;1;neither;0,319000005722
AZM90w;2017-05-29-15-18-51;10;5;0,90997879215;True;left;1,3;-0,15;1;neither;0,467000007629
AZM90w;2017-05-29-15-18-51;10;6;1,0809175293;False;left;1,7;0,15;1;neither;0,639999866486
AZM90w;2017-05-29-15-18-51;10;7;1,0837694266;True;neither;1,3;0,0;1;neither;1,07699990273
AZM90w;2017-05-29-15-18-51;10;8;0,822867080459;False;right;1,5;0,15;-1;neither;0,972999811172
AZM90w;2017-05-29-15-18-51;10;9;1,00279191558;True;right;1,7;0,15;-1;right;0,31200003624
AZM90w;2017-05-29-15-18-51;10;10;0,801839460131;False;left;1,7;-0,15;1;neither;0,894000053406
AZM90w;2017-05-29-15-18-51;10;11;1,03439430363;True;left;1,5;0,15;1;both;0,68700003624
AZM90w;2017-05-29-15-18-51;10;12;0,979492188862;False;right;1,9;0,15;-1;right;0,601000070572
AZM90w;2017-05-29-15-18-51;10;13;0,872534846329;True;right;1,3;0,0;-1;right;0,357999801636
AZM90w;2017-05-29-15-18-51;10;14;0,959908723925;False;left;1,1;0,0;-1;left;0,337000131607
AZM90w;2017-05-29-15-18-51;10;15;1,18489041268;True;both;1,3;0,15;1;both;0,337000131607
AZM90w;2017-05-29-15-18-51;10;16;0,911126383486;False;neither;1,9;0,15;-1;neither;0,911999940872
AZM90w;2017-05-29-15-18-51;10;17;1,00725417826;True;left;1,3;-0,15;-1;both;0,703000068665
AZM90w;2017-05-29-15-18-51;10;18;1,04369177663;False;neither;1,1;-0,15;-1;neither;1,02600002289
AZM90w;2017-05-29-15-18-51;10;19;1,14175934075;True;neither;1,3;-0,15;-1;neither;0,449999809265
AZM90w;2017-05-29-15-18-51;10;20;1,08930575235;False;left;1,1;0,15;1;left;0,34500002861
AZM90w;2017-05-29-15-18-51;10;21;1,06794188623;True;both;1,3;0,0;-1;both;0,0
AZM90w;2017-05-29-15-18-51;10;22;1,12119678554;False;both;1,7;0,15;-1;both;0,730000019073
AZM90w;2017-05-29-15-18-51;10;23;0,854852304435;True;left;1,3;0,15;-1;neither;0,882000207901
AZM90w;2017-05-29-15-18-51;10;24;1,15642936724;False;both;1,3;-0,15;1;both;0,0
AZM90w;2017-05-29-15-18-51;10;25;1,02926505797;True;neither;1,7;-0,15;1;neither;0,517000198364
AZM90w;2017-05-29-15-18-51;10;26;0,941673925617;False;right;1,5;0,0;1;right;0,319000005722
AZM90w;2017-05-29-15-18-51;10;27;0,986667394035;True;right;1,3;0,15;1;right;2,10899996758
AZM90w;2017-05-29-15-18-51;10;28;0,903459516391;False;both;1,1;-0,15;1;both;0,0
AZM90w;2017-05-29-15-18-51;10;29;0,98140054847;True;both;1,5;-0,15;-1;both;0,373000144958
AZM90w;2017-05-29-15-18-51;10;30;1,07896518176;False;left;1,1;0,0;1;both;0,3140001297
AZM90w;2017-05-29-15-18-51;10;31;0,826070142232;True;right;1,5;-0,15;1;both;0,322999954224
AZM90w;2017-05-29-15-18-51;10;32;1,05113069752;False;both;1,9;-0,15;1;both;0,580000162125
AZM90w;2017-05-29-15-18-51;10;33;1,10875103852;True;left;1,1;-0,15;-1;neither;1,03999996185
AZM90w;2017-05-29-15-18-51;10;34;1,04625786598;False;left;1,9;0,15;-1;neither;0,386999845505
AZM90w;2017-05-29-15-18-51;10;35;0,983570715073;True;right;1,7;0,0;1;neither;0,391000032425
AZM90w;2017-05-29-15-18-51;10;36;0,899818696653;False;left;1,3;0,0;1;neither;1,12300014496
AZM90w;2017-05-29-15-18-51;10;37;1,15456280486;True;left;1,5;0,0;1;left;0,424999952316
AZM90w;2017-05-29-15-18-51;10;38;0,938686973547;False;right;1,1;0,15;-1;neither;0,345999956131
AZM90w;2017-05-29-15-18-51;10;39;1,11845799632;True;both;1,5;0,15;-1;neither;0,338000059128
AZM90w;2017-05-29-15-18-51;10;40;0,890884341692;False;right;1,1;-0,15;1;right;0,607999801636
AZM90w;2017-05-29-15-18-51;10;41;0,979273208111;True;neither;1,9;0,0;-1;neither;0,891000032425
AZM90w;2017-05-29-15-18-51;10;42;0,823350247924;False;left;1,5;0,0;1;neither;0,320999860764
AZM90w;2017-05-29-15-18-51;10;43;1,04416219741;True;left;1,7;-0,15;1;neither;0,551999807358
AZM90w;2017-05-29-15-18-51;10;44;0,880308303571;False;both;1,1;0,15;1;both;0,0
AZM90w;2017-05-29-15-18-51;10;45;1,13426222386;True;right;1,3;0,15;-1;neither;0,801999807358
