Observer;SessionID;Block;Trial;OnsetDelay;Yellow;Switch;SwitchTime;Gap;Direction;Response;RT
BBW97w;2017-06-01-12-13-16;1;1;1,12858119518;False;left;1,7;0,0;-1;left;0,814999818802
BBW97w;2017-06-01-12-13-16;1;2;1,06337920653;True;left;1,7;0,0;-1;neither;1,35100007057
BBW97w;2017-06-01-12-13-16;1;3;1,08921661784;False;right;1,9;0,0;-1;right;0,861000061035
BBW97w;2017-06-01-12-13-16;1;4;0,857192102742;True;neither;1,7;-0,15;1;neither;1,01599979401
BBW97w;2017-06-01-12-13-16;1;5;0,933560408024;False;right;1,7;-0,15;-1;neither;1,04100012779
BBW97w;2017-06-01-12-13-16;1;6;1,17906952749;True;neither;1,1;-0,15;1;neither;1,0110001564
BBW97w;2017-06-01-12-13-16;1;7;1,02865242504;False;right;1,9;-0,15;1;neither;0,996999979019
BBW97w;2017-06-01-12-13-16;1;8;1,11919426273;True;right;1,9;-0,15;-1;neither;1,59700012207
BBW97w;2017-06-01-12-13-16;1;9;1,09148912254;False;both;1,9;-0,15;-1;right;0,618999958038
BBW97w;2017-06-01-12-13-16;1;10;1,16033738007;True;neither;1,7;0,15;1;neither;1,98799991608
BBW97w;2017-06-01-12-13-16;1;11;0,94418104287;False;right;1,1;-0,15;1;right;0,569999933243
BBW97w;2017-06-01-12-13-16;1;12;1,16687505631;True;right;1,5;0,15;-1;right;0,375999927521
BBW97w;2017-06-01-12-13-16;1;13;0,968349216421;False;right;1,7;0,15;-1;both;0,380000114441
BBW97w;2017-06-01-12-13-16;1;14;1,15288818645;True;both;1,9;0,15;-1;left;0,0310001373291
BBW97w;2017-06-01-12-13-16;1;15;1,11397069974;False;right;1,5;0,0;1;neither;1,14400005341
BBW97w;2017-06-01-12-13-16;1;16;0,963872744322;True;left;1,5;0,15;1;both;1,79299998283
BBW97w;2017-06-01-12-13-16;1;17;1,07962047972;False;both;1,1;-0,15;-1;both;1,79299998283
BBW97w;2017-06-01-12-13-16;1;18;0,92594630215;True;both;1,5;0,15;-1;neither;1,36900019646
BBW97w;2017-06-01-12-13-16;1;19;0,907285447857;False;right;1,7;-0,15;-1;neither;1,57999992371
BBW97w;2017-06-01-12-13-16;1;20;0,886598905767;True;neither;1,3;-0,15;1;neither;1,32399988174
BBW97w;2017-06-01-12-13-16;1;21;0,93033837432;False;right;1,5;-0,15;1;neither;1,22799992561
BBW97w;2017-06-01-12-13-16;1;22;0,975250663312;True;left;1,1;0,15;1;neither;1,21200013161
BBW97w;2017-06-01-12-13-16;1;23;0,880173043964;False;both;1,3;-0,15;1;both;1,21899986267
BBW97w;2017-06-01-12-13-16;1;24;1,09655291209;True;right;1,3;-0,15;1;neither;1,46000003815
BBW97w;2017-06-01-12-13-16;1;25;1,02535972678;False;neither;1,9;0,0;1;neither;0,755999803543
BBW97w;2017-06-01-12-13-16;1;26;1,08598382685;True;left;1,7;-0,15;1;neither;2,30100011826
BBW97w;2017-06-01-12-13-16;1;27;0,807231044776;False;left;1,3;0,0;-1;neither;0,890999794006
BBW97w;2017-06-01-12-13-16;1;28;1,00374832118;True;right;1,7;0,0;-1;neither;0,698999881744
BBW97w;2017-06-01-12-13-16;1;29;0,980197253352;False;left;1,7;0,15;-1;neither;0,52899980545
BBW97w;2017-06-01-12-13-16;1;30;1,01982979486;True;neither;1,5;0,15;1;neither;1,06900000572
BBW97w;2017-06-01-12-13-16;1;31;1,02135756747;False;right;1,3;0,15;1;neither;1,03400015831
BBW97w;2017-06-01-12-13-16;1;32;0,986932024935;True;neither;1,5;0,0;-1;neither;0,936000108719
BBW97w;2017-06-01-12-13-16;1;33;0,800947423758;False;both;1,9;0,0;1;neither;0,641000032425
BBW97w;2017-06-01-12-13-16;1;34;0,897160588326;True;both;1,7;0,15;1;neither;0,836000204086
BBW97w;2017-06-01-12-13-16;1;35;0,842052750377;False;both;1,7;0,0;-1;neither;0,859999895096
BBW97w;2017-06-01-12-13-16;1;36;0,932598250552;True;neither;1,5;-0,15;-1;neither;0,677000045776
BBW97w;2017-06-01-12-13-16;1;37;1,03426813107;False;right;1,1;0,0;1;neither;0,90499997139
BBW97w;2017-06-01-12-13-16;1;38;0,871105179894;True;right;1,9;0,0;-1;left;1,42900013924
BBW97w;2017-06-01-12-13-16;1;39;0,815491728975;False;right;1,3;0,0;1;neither;1,08000016212
BBW97w;2017-06-01-12-13-16;1;40;1,04215723772;True;right;1,1;0,0;1;neither;1,08899998665
BBW97w;2017-06-01-12-13-16;1;41;1,1210108007;False;left;1,9;-0,15;-1;neither;1,41899991035
BBW97w;2017-06-01-12-13-16;1;42;1,03082596213;True;left;1,9;0,15;-1;neither;0,766999959946
BBW97w;2017-06-01-12-13-16;1;43;0,970765219958;False;neither;1,1;0,15;-1;neither;1,23200011253
BBW97w;2017-06-01-12-13-16;1;44;1,13354948539;True;neither;1,3;0,0;1;neither;0,907999992371
BBW97w;2017-06-01-12-13-16;1;45;1,03358454871;False;left;1,9;0,15;-1;neither;0,674000024796
BBW97w;2017-06-01-12-13-16;2;1;1,10346646103;True;left;1,7;0,0;1;left;0,40499997139
BBW97w;2017-06-01-12-13-16;2;2;0,955571801008;False;left;1,7;0,0;-1;left;0,0
BBW97w;2017-06-01-12-13-16;2;3;0,987074599401;True;right;1,9;0,0;-1;right;0,638000011444
BBW97w;2017-06-01-12-13-16;2;4;0,83519508133;False;neither;1,7;-0,15;-1;neither;0,732999801636
BBW97w;2017-06-01-12-13-16;2;5;1,11956955036;True;right;1,7;-0,15;1;both;0,588999986649
BBW97w;2017-06-01-12-13-16;2;6;0,896113467309;False;neither;1,1;-0,15;-1;neither;1,24300003052
BBW97w;2017-06-01-12-13-16;2;7;1,03757075962;True;right;1,9;-0,15;-1;neither;0,839999914169
BBW97w;2017-06-01-12-13-16;2;8;0,968607628452;False;right;1,9;-0,15;1;neither;0,579999923706
BBW97w;2017-06-01-12-13-16;2;9;0,995331311153;True;both;1,9;-0,15;-1;neither;0,279000043869
BBW97w;2017-06-01-12-13-16;2;10;1,19652822411;False;neither;1,7;0,15;1;neither;0,729000091553
BBW97w;2017-06-01-12-13-16;2;11;0,881862271806;True;right;1,1;-0,15;1;both;1,77099990845
BBW97w;2017-06-01-12-13-16;2;12;0,921914471036;False;right;1,5;0,15;-1;neither;0,75
BBW97w;2017-06-01-12-13-16;2;13;0,938336167241;True;right;1,7;0,15;1;left;1,33899998665
BBW97w;2017-06-01-12-13-16;2;14;1,12255144025;False;both;1,9;0,15;1;neither;0,757999897003
BBW97w;2017-06-01-12-13-16;2;15;0,980673750349;True;right;1,5;0,0;-1;neither;1,07099986076
BBW97w;2017-06-01-12-13-16;2;16;0,836647114526;False;left;1,5;0,15;1;neither;0,536999940872
BBW97w;2017-06-01-12-13-16;2;17;1,06809317298;True;both;1,1;-0,15;-1;neither;0,384999990463
BBW97w;2017-06-01-12-13-16;2;18;1,0256006459;False;both;1,5;0,15;1;neither;0,93700003624
BBW97w;2017-06-01-12-13-16;2;19;0,804147858373;True;right;1,7;-0,15;1;neither;0,913000106812
BBW97w;2017-06-01-12-13-16;2;20;0,860103783817;False;neither;1,3;-0,15;-1;neither;0,632000207901
BBW97w;2017-06-01-12-13-16;2;21;0,825762944993;True;right;1,5;-0,15;-1;neither;1,19000005722
BBW97w;2017-06-01-12-13-16;2;22;1,12543483644;False;left;1,1;0,15;1;neither;0,692999839783
BBW97w;2017-06-01-12-13-16;2;23;1,12804768087;True;both;1,3;-0,15;1;neither;0,876999855042
BBW97w;2017-06-01-12-13-16;2;24;0,806152686242;False;right;1,3;-0,15;-1;neither;1,06500005722
BBW97w;2017-06-01-12-13-16;2;25;0,800454337792;True;neither;1,9;0,0;-1;neither;0,710999965668
BBW97w;2017-06-01-12-13-16;2;26;1,01539352044;False;left;1,7;-0,15;1;left;0,132999897003
BBW97w;2017-06-01-12-13-16;2;27;1,04808185145;True;left;1,3;0,0;1;neither;1,35800004005
BBW97w;2017-06-01-12-13-16;2;28;1,09040337028;False;right;1,7;0,0;-1;neither;1,30999994278
BBW97w;2017-06-01-12-13-16;2;29;1,14156837128;True;left;1,7;0,15;1;neither;1,32399988174
BBW97w;2017-06-01-12-13-16;2;30;1,1788558641;False;neither;1,5;0,15;1;neither;0,588000059128
BBW97w;2017-06-01-12-13-16;2;31;1,05868530449;True;right;1,3;0,15;1;right;1,56500005722
BBW97w;2017-06-01-12-13-16;2;32;1,03522437669;False;neither;1,5;0,0;1;neither;0,709999799728
BBW97w;2017-06-01-12-13-16;2;33;0,874767796629;True;both;1,9;0,0;-1;neither;0,432999849319
BBW97w;2017-06-01-12-13-16;2;34;0,869272071796;False;both;1,7;0,15;-1;neither;1,26699995995
BBW97w;2017-06-01-12-13-16;2;35;1,12655814034;True;both;1,7;0,0;-1;neither;0,626999855042
BBW97w;2017-06-01-12-13-16;2;36;0,893014429075;False;neither;1,5;-0,15;-1;neither;0,712000131607
BBW97w;2017-06-01-12-13-16;2;37;0,986357408165;True;right;1,1;0,0;-1;neither;0,72000002861
BBW97w;2017-06-01-12-13-16;2;38;1,07835650053;False;right;1,9;0,0;1;right;0,480000019073
BBW97w;2017-06-01-12-13-16;2;39;0,990464173462;True;right;1,3;0,0;-1;neither;0,374000072479
BBW97w;2017-06-01-12-13-16;2;40;0,921415781425;False;right;1,1;0,0;-1;neither;0,509000062943
BBW97w;2017-06-01-12-13-16;2;41;0,901798696464;True;left;1,9;-0,15;-1;neither;0,881999969482
BBW97w;2017-06-01-12-13-16;2;42;1,161493362;False;left;1,9;0,15;1;neither;1,09899997711
BBW97w;2017-06-01-12-13-16;2;43;0,87390723078;True;neither;1,1;0,15;-1;neither;1,27900004387
BBW97w;2017-06-01-12-13-16;2;44;0,904351167876;False;neither;1,3;0,0;1;neither;0,738999843597
BBW97w;2017-06-01-12-13-16;2;45;0,876162364134;True;left;1,9;0,15;1;neither;0,417000055313
BBW97w;2017-06-01-12-13-16;3;1;1,08843988477;False;left;1,3;0,0;-1;neither;0,602999925613
BBW97w;2017-06-01-12-13-16;3;2;1,01285818596;True;right;1,1;0,15;-1;neither;0,405999898911
BBW97w;2017-06-01-12-13-16;3;3;1,16871986837;False;left;1,7;-0,15;-1;neither;0,395999908447
BBW97w;2017-06-01-12-13-16;3;4;1,05552611147;True;left;1,9;0,0;-1;neither;0,370000123978
BBW97w;2017-06-01-12-13-16;3;5;0,919346076465;False;left;1,9;0,0;-1;neither;0,523000001907
BBW97w;2017-06-01-12-13-16;3;6;1,04451541638;True;left;1,7;-0,15;1;left;1,15300011635
BBW97w;2017-06-01-12-13-16;3;7;1,12499932343;False;neither;1,3;0,0;1;neither;0,569999933243
BBW97w;2017-06-01-12-13-16;3;8;0,840035576991;True;neither;1,1;0,15;1;neither;0,574000120163
BBW97w;2017-06-01-12-13-16;3;9;1,04921425495;False;left;1,1;0,15;1;neither;0,664999961853
BBW97w;2017-06-01-12-13-16;3;10;0,874916491874;True;both;1,1;0,0;-1;both;0,909999847412
BBW97w;2017-06-01-12-13-16;3;11;1,07478394666;False;right;1,5;0,15;-1;neither;0,662999868393
BBW97w;2017-06-01-12-13-16;3;12;0,968526308908;True;left;1,5;-0,15;1;neither;0,466000080109
BBW97w;2017-06-01-12-13-16;3;13;0,86882737363;False;both;1,7;0,15;-1;neither;0,523000001907
BBW97w;2017-06-01-12-13-16;3;14;1,15661842433;True;both;1,7;-0,15;1;neither;0,457000017166
BBW97w;2017-06-01-12-13-16;3;15;0,958664310535;False;both;1,1;-0,15;1;neither;0,430999994278
BBW97w;2017-06-01-12-13-16;3;16;0,920599487853;True;right;1,3;0,0;1;right;0,87700009346
BBW97w;2017-06-01-12-13-16;3;17;1,02306927338;False;right;1,3;0,0;1;right;0,447999954224
BBW97w;2017-06-01-12-13-16;3;18;0,867634692788;True;neither;1,9;0,15;1;neither;0,582999944687
BBW97w;2017-06-01-12-13-16;3;19;0,879772441856;False;both;1,1;0,15;1;neither;0,431999921799
BBW97w;2017-06-01-12-13-16;3;20;0,978288989782;True;right;1,1;0,0;1;right;0,447999954224
BBW97w;2017-06-01-12-13-16;3;21;0,84569349346;False;both;1,3;-0,15;1;neither;0,684000015259
BBW97w;2017-06-01-12-13-16;3;22;0,822242221026;True;right;1,5;-0,15;1;neither;0,688999891281
BBW97w;2017-06-01-12-13-16;3;23;1,05260684921;False;left;1,9;-0,15;-1;neither;0,668999910355
BBW97w;2017-06-01-12-13-16;3;24;0,951189953449;True;right;1,5;0,0;1;neither;0,588000059128
BBW97w;2017-06-01-12-13-16;3;25;1,14916801459;False;right;1,3;0,15;-1;neither;0,572999954224
BBW97w;2017-06-01-12-13-16;3;26;1,06839038217;True;right;1,7;0,0;1;neither;0,544999837875
BBW97w;2017-06-01-12-13-16;3;27;0,906031309085;False;left;1,5;0,15;-1;neither;0,453999996185
BBW97w;2017-06-01-12-13-16;3;28;0,974863208866;True;both;1,5;0,0;-1;right;0,526999950409
BBW97w;2017-06-01-12-13-16;3;29;1,14617122437;False;right;1,9;0,15;1;neither;0,641000032425
BBW97w;2017-06-01-12-13-16;3;30;0,976141111314;True;right;1,7;0,0;1;neither;0,478999853134
BBW97w;2017-06-01-12-13-16;3;31;1,00204070063;False;neither;1,7;0,0;1;neither;0,677000045776
BBW97w;2017-06-01-12-13-16;3;32;0,947671267671;True;both;1,9;0,15;-1;neither;0,901999950409
BBW97w;2017-06-01-12-13-16;3;33;1,08511103278;False;neither;1,3;-0,15;-1;neither;0,403000116348
BBW97w;2017-06-01-12-13-16;3;34;1,07243443045;True;neither;1,1;-0,15;-1;neither;0,582000017166
BBW97w;2017-06-01-12-13-16;3;35;1,05291439129;False;right;1,1;0,15;-1;neither;1,61500000954
BBW97w;2017-06-01-12-13-16;3;36;1,19710014222;True;left;1,3;-0,15;1;neither;0,588000059128
BBW97w;2017-06-01-12-13-16;3;37;1,08542725096;False;both;1,9;-0,15;-1;neither;0,561999797821
BBW97w;2017-06-01-12-13-16;3;38;1,17013968575;True;right;1,7;-0,15;1;neither;0,468000173569
BBW97w;2017-06-01-12-13-16;3;39;1,00984703634;False;left;1,3;0,15;1;neither;0,56200003624
BBW97w;2017-06-01-12-13-16;3;40;0,932923709075;True;left;1,3;-0,15;-1;left;0,332000017166
BBW97w;2017-06-01-12-13-16;3;41;1,04170461634;False;left;1,5;0,15;1;neither;0,529000043869
BBW97w;2017-06-01-12-13-16;3;42;0,997222078772;True;both;1,9;0,0;1;left;0,225000143051
BBW97w;2017-06-01-12-13-16;3;43;1,16437696141;False;neither;1,9;0,0;-1;neither;0,743999958038
BBW97w;2017-06-01-12-13-16;3;44;1,06623231777;True;right;1,1;-0,15;1;right;1,32799983025
BBW97w;2017-06-01-12-13-16;3;45;1,10319405236;False;right;1,7;-0,15;-1;neither;0,641000032425
BBW97w;2017-06-01-12-13-16;4;1;0,814881556053;True;left;1,3;0,0;-1;neither;0,411999940872
BBW97w;2017-06-01-12-13-16;4;2;0,84871582622;False;right;1,1;0,15;-1;neither;0,332000017166
BBW97w;2017-06-01-12-13-16;4;3;1,07034252641;True;left;1,7;-0,15;-1;neither;0,43499994278
BBW97w;2017-06-01-12-13-16;4;4;1,06523513395;False;left;1,9;0,0;1;left;0,489999771118
BBW97w;2017-06-01-12-13-16;4;5;1,1658882103;True;left;1,9;0,0;1;neither;0,535000085831
BBW97w;2017-06-01-12-13-16;4;6;0,856654166765;False;left;1,7;-0,15;-1;neither;0,360000133514
BBW97w;2017-06-01-12-13-16;4;7;0,946509487071;True;neither;1,3;0,0;1;neither;0,391999959946
BBW97w;2017-06-01-12-13-16;4;8;0,870016066034;False;neither;1,1;0,15;1;neither;0,404000043869
BBW97w;2017-06-01-12-13-16;4;9;0,955082763619;True;left;1,1;0,15;1;neither;0,339000225067
BBW97w;2017-06-01-12-13-16;4;10;0,970134569235;False;both;1,1;0,0;-1;neither;0,281000137329
BBW97w;2017-06-01-12-13-16;4;11;0,822915745126;True;right;1,5;0,15;-1;neither;0,447999954224
BBW97w;2017-06-01-12-13-16;4;12;0,975952592349;False;left;1,5;-0,15;1;neither;0,454999923706
BBW97w;2017-06-01-12-13-16;4;13;0,896993404538;True;both;1,7;0,15;1;neither;0,384000062943
BBW97w;2017-06-01-12-13-16;4;14;1,13274720902;False;both;1,7;-0,15;1;neither;0,427000045776
BBW97w;2017-06-01-12-13-16;4;15;0,802656775421;True;both;1,1;-0,15;1;neither;0,365000009537
BBW97w;2017-06-01-12-13-16;4;16;1,10683387637;False;right;1,3;0,0;-1;neither;0,56200003624
BBW97w;2017-06-01-12-13-16;4;17;1,12597498376;True;right;1,3;0,0;1;neither;0,644000053406
BBW97w;2017-06-01-12-13-16;4;18;1,02310081103;False;neither;1,9;0,15;1;neither;0,469000101089
BBW97w;2017-06-01-12-13-16;4;19;1,01749639711;True;both;1,1;0,15;-1;neither;0,394000053406
BBW97w;2017-06-01-12-13-16;4;20;1,08906274519;False;right;1,1;0,0;1;right;0,339999914169
BBW97w;2017-06-01-12-13-16;4;21;1,13490916663;True;both;1,3;-0,15;-1;neither;0,380999803543
BBW97w;2017-06-01-12-13-16;4;22;0,865215268979;False;right;1,5;-0,15;-1;neither;0,356000185013
BBW97w;2017-06-01-12-13-16;4;23;0,832447700711;True;left;1,9;-0,15;-1;neither;0,50400018692
BBW97w;2017-06-01-12-13-16;4;24;1,04472631801;False;right;1,5;0,0;1;neither;0,641999959946
BBW97w;2017-06-01-12-13-16;4;25;0,985946025166;True;right;1,3;0,15;-1;right;1,57400012016
BBW97w;2017-06-01-12-13-16;4;26;1,08814958807;False;right;1,7;0,0;-1;right;1,07299995422
BBW97w;2017-06-01-12-13-16;4;27;1,18839703342;True;left;1,5;0,15;1;neither;0,733999967575
BBW97w;2017-06-01-12-13-16;4;28;1,06648199957;False;both;1,5;0,0;-1;both;0,736999988556
BBW97w;2017-06-01-12-13-16;4;29;0,966193785437;True;right;1,9;0,15;1;neither;1,1210000515
BBW97w;2017-06-01-12-13-16;4;30;1,00677027508;False;right;1,7;0,0;-1;neither;0,81500005722
BBW97w;2017-06-01-12-13-16;4;31;0,843387373699;True;neither;1,7;0,0;-1;neither;1,06399989128
BBW97w;2017-06-01-12-13-16;4;32;1,11936324492;False;both;1,9;0,15;-1;neither;0,467000007629
BBW97w;2017-06-01-12-13-16;4;33;1,10619624015;True;neither;1,3;-0,15;-1;neither;0,565999984741
BBW97w;2017-06-01-12-13-16;4;34;0,804875436921;False;neither;1,1;-0,15;-1;neither;0,421999931335
BBW97w;2017-06-01-12-13-16;4;35;1,05908822035;True;right;1,1;0,15;-1;neither;0,34500002861
BBW97w;2017-06-01-12-13-16;4;36;0,977120324828;False;left;1,3;-0,15;-1;neither;0,634999990463
BBW97w;2017-06-01-12-13-16;4;37;0,910464775893;True;both;1,9;-0,15;-1;neither;0,40299987793
BBW97w;2017-06-01-12-13-16;4;38;1,16435908828;False;right;1,7;-0,15;-1;neither;0,376999855042
BBW97w;2017-06-01-12-13-16;4;39;1,02520567212;True;left;1,3;0,15;1;neither;0,528000116348
BBW97w;2017-06-01-12-13-16;4;40;0,818550210634;False;left;1,3;-0,15;-1;neither;0,615000009537
BBW97w;2017-06-01-12-13-16;4;41;0,832060557634;True;left;1,5;0,15;1;neither;0,47200012207
BBW97w;2017-06-01-12-13-16;4;42;0,958526297874;False;both;1,9;0,0;1;neither;0,742999792099
BBW97w;2017-06-01-12-13-16;4;43;1,0498824626;True;neither;1,9;0,0;1;neither;0,529000043869
BBW97w;2017-06-01-12-13-16;4;44;1,00025661872;False;right;1,1;-0,15;-1;neither;0,394000053406
BBW97w;2017-06-01-12-13-16;4;45;0,857668100766;True;right;1,7;-0,15;1;neither;0,401000022888
BBW97w;2017-06-01-12-13-16;5;1;0,913462639948;False;neither;1,3;-0,15;-1;neither;1,0569999218
BBW97w;2017-06-01-12-13-16;5;2;1,03439091111;True;right;1,9;-0,15;1;neither;0,387999773026
BBW97w;2017-06-01-12-13-16;5;3;1,11855928955;False;neither;1,5;-0,15;-1;neither;0,371999979019
BBW97w;2017-06-01-12-13-16;5;4;0,87998500603;True;right;1,9;0,15;-1;neither;0,611999988556
BBW97w;2017-06-01-12-13-16;5;5;1,10289035724;False;left;1,5;0,15;-1;neither;0,776000022888
BBW97w;2017-06-01-12-13-16;5;6;1,01428775982;True;both;1,7;0,0;1;neither;0,519000053406
BBW97w;2017-06-01-12-13-16;5;7;0,915817722935;False;left;1,7;-0,15;1;neither;0,367000102997
BBW97w;2017-06-01-12-13-16;5;8;1,07724926798;True;left;1,9;0,15;-1;neither;0,542000055313
BBW97w;2017-06-01-12-13-16;5;9;0,820896221703;False;left;1,9;0,15;-1;neither;0,380000114441
BBW97w;2017-06-01-12-13-16;5;10;0,918606210061;True;right;1,5;0,0;1;neither;1,14800000191
BBW97w;2017-06-01-12-13-16;5;11;0,940222065552;False;left;1,5;-0,15;-1;neither;0,604000091553
BBW97w;2017-06-01-12-13-16;5;12;0,955017385301;True;left;1,1;-0,15;-1;neither;0,421000003815
BBW97w;2017-06-01-12-13-16;5;13;1,17647434404;False;both;1,9;0,15;1;neither;0,49799990654
BBW97w;2017-06-01-12-13-16;5;14;0,920421606081;True;left;1,1;0,15;-1;neither;0,575999975204
BBW97w;2017-06-01-12-13-16;5;15;1,12339879804;False;both;1,9;0,0;1;left;0,692000150681
BBW97w;2017-06-01-12-13-16;5;16;1,12719853508;True;left;1,1;0,0;1;neither;0,68499994278
BBW97w;2017-06-01-12-13-16;5;17;0,835306143478;False;right;1,5;0,15;1;neither;0,517999887466
BBW97w;2017-06-01-12-13-16;5;18;0,874381371681;True;right;1,5;0,0;1;both;1,15699982643
BBW97w;2017-06-01-12-13-16;5;19;1,06830605716;False;right;1,7;0,0;1;neither;0,0
BBW97w;2017-06-01-12-13-16;5;20;1,1071241053;True;left;1,3;0,15;1;both;0,0
BBW97w;2017-06-01-12-13-16;5;21;0,876311998698;False;right;1,7;-0,15;-1;left;0,0
BBW97w;2017-06-01-12-13-16;5;22;0,888605185448;True;right;1,5;-0,15;1;left;0,0
BBW97w;2017-06-01-12-13-16;5;23;0,895373353505;False;right;1,5;-0,15;1;right;0,0
BBW97w;2017-06-01-12-13-16;5;24;1,00733167012;True;right;1,3;0,0;1;neither;0,0
BBW97w;2017-06-01-12-13-16;5;25;1,09678433769;False;left;1,1;-0,15;-1;neither;0,0
BBW97w;2017-06-01-12-13-16;5;26;1,17388931113;True;left;1,1;0,15;-1;left;0,0
BBW97w;2017-06-01-12-13-16;5;27;0,944095421248;False;left;1,3;-0,15;1;left;0,0
BBW97w;2017-06-01-12-13-16;5;28;0,816335560925;True;right;1,1;-0,15;-1;neither;0,0
BBW97w;2017-06-01-12-13-16;5;29;1,09866636138;False;both;1,7;-0,15;-1;neither;0,0
BBW97w;2017-06-01-12-13-16;5;30;1,00918557978;True;neither;1,7;0,0;1;neither;0,0
BBW97w;2017-06-01-12-13-16;5;31;1,14559536181;False;right;1,3;-0,15;1;neither;0,0
BBW97w;2017-06-01-12-13-16;5;32;1,07637191367;True;left;1,5;-0,15;1;neither;0,0
BBW97w;2017-06-01-12-13-16;5;33;1,05335756297;False;neither;1,7;0,15;-1;neither;0,0
BBW97w;2017-06-01-12-13-16;5;34;0,972450803284;True;both;1,1;0,0;1;neither;0,0
BBW97w;2017-06-01-12-13-16;5;35;0,883773314131;False;neither;1,9;0,0;-1;neither;0,000999927520752
BBW97w;2017-06-01-12-13-16;5;36;0,987374999849;True;both;1,1;0,15;1;neither;0,0
BBW97w;2017-06-01-12-13-16;5;37;1,05059052373;False;neither;1,1;0,0;1;neither;0,0
BBW97w;2017-06-01-12-13-16;5;38;1,18493887467;True;both;1,5;0,0;-1;neither;0,0
BBW97w;2017-06-01-12-13-16;5;39;1,04329613686;False;right;1,5;0,15;1;neither;0,0
BBW97w;2017-06-01-12-13-16;5;40;1,17401093562;True;left;1,7;0,0;1;neither;0,0
BBW97w;2017-06-01-12-13-16;5;41;1,10182383079;False;right;1,3;0,15;-1;left;0,000999927520752
BBW97w;2017-06-01-12-13-16;5;42;1,15359188551;True;right;1,3;0,15;1;neither;0,0
BBW97w;2017-06-01-12-13-16;5;43;0,916194925937;False;right;1,1;0,15;-1;neither;0,0
BBW97w;2017-06-01-12-13-16;5;44;1,14626584657;True;left;1,9;-0,15;1;right;0,0
BBW97w;2017-06-01-12-13-16;5;45;0,896049549667;False;left;1,9;0,0;1;neither;0,0
BBW97w;2017-06-01-12-13-16;6;1;0,951935932442;True;neither;1,3;-0,15;-1;neither;0,822999954224
BBW97w;2017-06-01-12-13-16;6;2;0,843719454907;False;right;1,9;-0,15;-1;left;0,700000047684
BBW97w;2017-06-01-12-13-16;6;3;1,1224359688;True;neither;1,5;-0,15;1;neither;0,790999889374
BBW97w;2017-06-01-12-13-16;6;4;1,07595201288;False;right;1,9;0,15;1;neither;0,868999958038
BBW97w;2017-06-01-12-13-16;6;5;1,02786039491;True;left;1,5;0,15;1;left;0,614999771118
BBW97w;2017-06-01-12-13-16;6;6;0,938138224552;False;both;1,7;0,0;1;left;1,21799993515
BBW97w;2017-06-01-12-13-16;6;7;1,04425147866;True;left;1,7;-0,15;1;neither;0,375
BBW97w;2017-06-01-12-13-16;6;8;1,19115801472;False;left;1,9;0,15;-1;neither;0,375999927521
BBW97w;2017-06-01-12-13-16;6;9;1,18478565656;True;left;1,9;0,15;-1;neither;0,438999891281
BBW97w;2017-06-01-12-13-16;6;10;0,903804890351;False;right;1,5;0,0;-1;neither;0,397000074387
BBW97w;2017-06-01-12-13-16;6;11;1,14974150913;True;left;1,5;-0,15;1;left;0,425000190735
BBW97w;2017-06-01-12-13-16;6;12;0,899440120575;False;left;1,1;-0,15;1;both;0,851000070572
BBW97w;2017-06-01-12-13-16;6;13;1,02511790378;True;both;1,9;0,15;1;neither;0,414000034332
BBW97w;2017-06-01-12-13-16;6;14;1,12314645619;False;left;1,1;0,15;1;neither;0,645999908447
BBW97w;2017-06-01-12-13-16;6;15;0,888266340732;True;both;1,9;0,0;1;left;0,789000034332
BBW97w;2017-06-01-12-13-16;6;16;1,16039318593;False;left;1,1;0,0;-1;neither;1,45700001717
BBW97w;2017-06-01-12-13-16;6;17;0,959078470105;True;right;1,5;0,15;1;neither;0,537999868393
BBW97w;2017-06-01-12-13-16;6;18;1,07589583615;False;right;1,5;0,0;1;neither;0,34299993515
BBW97w;2017-06-01-12-13-16;6;19;1,18258048588;True;right;1,7;0,0;1;neither;0,592000007629
BBW97w;2017-06-01-12-13-16;6;20;0,944467784777;False;left;1,3;0,15;-1;neither;0,361999988556
BBW97w;2017-06-01-12-13-16;6;21;0,849764886648;True;right;1,7;-0,15;1;neither;0,375
BBW97w;2017-06-01-12-13-16;6;22;0,89957023379;False;right;1,5;-0,15;1;neither;0,559000015259
BBW97w;2017-06-01-12-13-16;6;23;0,925540257304;True;right;1,5;-0,15;1;both;0,364000082016
BBW97w;2017-06-01-12-13-16;6;24;0,927023068985;False;right;1,3;0,0;-1;neither;0,367000102997
BBW97w;2017-06-01-12-13-16;6;25;0,94343404686;True;left;1,1;-0,15;1;neither;0,391000032425
BBW97w;2017-06-01-12-13-16;6;26;0,971029439678;False;left;1,1;0,15;1;neither;1,01400017738
BBW97w;2017-06-01-12-13-16;6;27;0,80531402072;True;left;1,3;-0,15;1;neither;0,503999948502
BBW97w;2017-06-01-12-13-16;6;28;0,807753639317;False;right;1,1;-0,15;1;neither;0,337999820709
BBW97w;2017-06-01-12-13-16;6;29;0,940945568383;True;both;1,7;-0,15;-1;neither;0,325000047684
BBW97w;2017-06-01-12-13-16;6;30;0,982738688627;False;neither;1,7;0,0;-1;neither;0,473999977112
BBW97w;2017-06-01-12-13-16;6;31;0,994680075155;True;right;1,3;-0,15;1;neither;0,52999997139
BBW97w;2017-06-01-12-13-16;6;32;1,13330701606;False;left;1,5;-0,15;-1;neither;0,424999952316
BBW97w;2017-06-01-12-13-16;6;33;0,889742787016;True;neither;1,7;0,15;1;neither;0,422000169754
BBW97w;2017-06-01-12-13-16;6;34;1,09106332122;False;both;1,1;0,0;-1;neither;0,541999816895
BBW97w;2017-06-01-12-13-16;6;35;1,04862769233;True;neither;1,9;0,0;1;neither;0,351999998093
BBW97w;2017-06-01-12-13-16;6;36;0,939120608236;False;both;1,1;0,15;-1;neither;0,458999872208
BBW97w;2017-06-01-12-13-16;6;37;1,10880585039;True;neither;1,1;0,0;-1;neither;0,742999792099
BBW97w;2017-06-01-12-13-16;6;38;0,883932649259;False;both;1,5;0,0;1;neither;1,10800004005
BBW97w;2017-06-01-12-13-16;6;39;1,09760182108;True;right;1,5;0,15;-1;neither;0,804000139236
BBW97w;2017-06-01-12-13-16;6;40;0,879002719874;False;left;1,7;0,0;-1;neither;0,80999994278
BBW97w;2017-06-01-12-13-16;6;41;1,10271756552;True;right;1,3;0,15;1;neither;0,374000072479
BBW97w;2017-06-01-12-13-16;6;42;0,939032523456;False;right;1,3;0,15;-1;neither;0,540999889374
BBW97w;2017-06-01-12-13-16;6;43;0,960334773261;True;right;1,1;0,15;1;neither;0,639000177383
BBW97w;2017-06-01-12-13-16;6;44;1,18318639882;False;left;1,9;-0,15;-1;neither;0,556999921799
BBW97w;2017-06-01-12-13-16;6;45;0,983808428497;True;left;1,9;0,0;1;neither;1,4849998951
BBW97w;2017-06-01-12-13-16;7;1;0,998353503875;False;right;1,1;-0,15;1;neither;0,374000072479
BBW97w;2017-06-01-12-13-16;7;2;0,976706325092;True;both;1,5;0,15;1;neither;0,43499994278
BBW97w;2017-06-01-12-13-16;7;3;1,12587019615;False;left;1,7;0,15;-1;neither;0,454999923706
BBW97w;2017-06-01-12-13-16;7;4;1,06589226647;True;right;1,9;-0,15;-1;neither;0,534999847412
BBW97w;2017-06-01-12-13-16;7;5;1,0702624458;False;both;1,5;0,0;1;neither;0,401999950409
BBW97w;2017-06-01-12-13-16;7;6;0,921308107889;True;right;1,1;-0,15;-1;both;1,39100003242
BBW97w;2017-06-01-12-13-16;7;7;1,12756278764;False;right;1,3;0,15;1;neither;0,496999979019
BBW97w;2017-06-01-12-13-16;7;8;0,824954275169;True;left;1,1;-0,15;1;neither;0,530000209808
BBW97w;2017-06-01-12-13-16;7;9;0,892658027446;False;both;1,7;-0,15;1;neither;0,536000013351
BBW97w;2017-06-01-12-13-16;7;10;0,961713964894;True;left;1,7;-0,15;-1;neither;0,393999814987
BBW97w;2017-06-01-12-13-16;7;11;1,07237785559;False;left;1,5;-0,15;-1;neither;0,351999998093
BBW97w;2017-06-01-12-13-16;7;12;0,840109103896;True;neither;1,9;0,0;1;neither;0,451999902725
BBW97w;2017-06-01-12-13-16;7;13;1,04341612903;False;right;1,7;0,0;1;neither;0,607000112534
BBW97w;2017-06-01-12-13-16;7;14;1,11684126085;True;left;1,9;-0,15;1;neither;0,648000001907
BBW97w;2017-06-01-12-13-16;7;15;0,865997274191;False;right;1,7;-0,15;1;neither;0,617000102997
BBW97w;2017-06-01-12-13-16;7;16;0,984547243791;True;left;1,9;0,0;1;neither;0,449999809265
BBW97w;2017-06-01-12-13-16;7;17;1,01974031487;False;right;1,5;0,0;1;neither;0,593000173569
BBW97w;2017-06-01-12-13-16;7;18;1,16335006196;True;both;1,9;-0,15;-1;neither;0,515000104904
BBW97w;2017-06-01-12-13-16;7;19;1,16286699533;False;left;1,9;0,15;-1;neither;0,672999858856
BBW97w;2017-06-01-12-13-16;7;20;1,16035472803;True;right;1,5;-0,15;-1;neither;0,509999990463
BBW97w;2017-06-01-12-13-16;7;21;0,860162649591;False;right;1,1;0,15;-1;neither;0,496999979019
BBW97w;2017-06-01-12-13-16;7;22;0,981342726638;True;left;1,7;0,0;1;neither;0,527000188828
BBW97w;2017-06-01-12-13-16;7;23;1,19398156743;False;right;1,3;0,0;-1;neither;0,468999862671
BBW97w;2017-06-01-12-13-16;7;24;1,0712868349;True;left;1,7;0,0;-1;neither;0,713999986649
BBW97w;2017-06-01-12-13-16;7;25;1,16778871447;False;right;1,9;-0,15;-1;neither;0,78200006485
BBW97w;2017-06-01-12-13-16;7;26;1,12045078458;True;left;1,5;0,0;1;neither;0,371000051498
BBW97w;2017-06-01-12-13-16;7;27;1,00156138203;False;both;1,7;0,0;-1;left;0,774000167847
BBW97w;2017-06-01-12-13-16;7;28;1,01408226765;True;left;1,1;0,15;-1;left;0,630999803543
BBW97w;2017-06-01-12-13-16;7;29;0,879523387605;False;left;1,5;0,0;-1;neither;0,508999824524
BBW97w;2017-06-01-12-13-16;7;30;0,859034197169;True;left;1,5;-0,15;-1;neither;0,405999898911
BBW97w;2017-06-01-12-13-16;7;31;0,988801933852;False;neither;1,3;-0,15;-1;neither;0,491999864578
BBW97w;2017-06-01-12-13-16;7;32;0,819867796947;True;neither;1,3;0,0;-1;neither;0,585000038147
BBW97w;2017-06-01-12-13-16;7;33;1,09162211438;False;both;1,1;-0,15;-1;left;0,586999893188
BBW97w;2017-06-01-12-13-16;7;34;1,18745653106;True;neither;1,3;0,15;-1;neither;0,422999858856
BBW97w;2017-06-01-12-13-16;7;35;1,12874839593;False;left;1,1;-0,15;1;neither;0,557999849319
BBW97w;2017-06-01-12-13-16;7;36;1,18553587232;True;left;1,1;0,0;-1;neither;0,641999959946
BBW97w;2017-06-01-12-13-16;7;37;1,09082677303;False;right;1,7;-0,15;1;neither;0,381999969482
BBW97w;2017-06-01-12-13-16;7;38;0,846788843013;True;right;1,7;0,0;-1;right;0,411000013351
BBW97w;2017-06-01-12-13-16;7;39;1,11564175318;False;left;1,9;-0,15;1;neither;0,697999954224
BBW97w;2017-06-01-12-13-16;7;40;1,06988561644;True;both;1,7;0,15;-1;neither;0,398000001907
BBW97w;2017-06-01-12-13-16;7;41;0,996783228875;False;both;1,1;0,15;-1;right;0,473999977112
BBW97w;2017-06-01-12-13-16;7;42;1,15124967434;True;right;1,9;0,0;1;neither;1,00500011444
BBW97w;2017-06-01-12-13-16;7;43;1,03547510899;False;neither;1,1;0,0;1;neither;0,708000183105
BBW97w;2017-06-01-12-13-16;7;44;0,815715946923;True;right;1,1;0,0;-1;right;0,424999952316
BBW97w;2017-06-01-12-13-16;7;45;1,13600759423;False;right;1,1;0,15;-1;neither;0,338999986649
BBW97w;2017-06-01-12-13-16;8;1;1,03818667921;True;right;1,1;-0,15;-1;both;0,292000055313
BBW97w;2017-06-01-12-13-16;8;2;1,03863479098;False;both;1,5;0,15;1;neither;0,584000110626
BBW97w;2017-06-01-12-13-16;8;3;1,08572639793;True;left;1,7;0,15;1;neither;0,460000038147
BBW97w;2017-06-01-12-13-16;8;4;0,988671888827;False;right;1,9;-0,15;-1;neither;0,486999988556
BBW97w;2017-06-01-12-13-16;8;5;0,868740393694;True;both;1,5;0,0;1;neither;0,375999927521
BBW97w;2017-06-01-12-13-16;8;6;0,961721984862;False;right;1,1;-0,15;-1;neither;0,431999921799
BBW97w;2017-06-01-12-13-16;8;7;0,967204078624;True;right;1,3;0,15;1;neither;0,636000156403
BBW97w;2017-06-01-12-13-16;8;8;0,977546832042;False;left;1,1;-0,15;-1;neither;0,422999858856
BBW97w;2017-06-01-12-13-16;8;9;1,12522245713;True;both;1,7;-0,15;-1;neither;0,700999975204
BBW97w;2017-06-01-12-13-16;8;10;1,1312772442;False;left;1,7;-0,15;1;neither;0,650000095367
BBW97w;2017-06-01-12-13-16;8;11;1,16909133845;True;left;1,5;-0,15;-1;neither;0,366000175476
BBW97w;2017-06-01-12-13-16;8;12;0,991381073267;False;neither;1,9;0,0;1;neither;0,475000143051
BBW97w;2017-06-01-12-13-16;8;13;1,15315935921;True;right;1,7;0,0;-1;neither;0,509999990463
BBW97w;2017-06-01-12-13-16;8;14;0,996630805143;False;left;1,9;-0,15;1;neither;0,580999851227
BBW97w;2017-06-01-12-13-16;8;15;0,838275614553;True;right;1,7;-0,15;-1;neither;0,384000062943
BBW97w;2017-06-01-12-13-16;8;16;1,1332638652;False;left;1,9;0,0;-1;neither;0,531000137329
BBW97w;2017-06-01-12-13-16;8;17;1,00514184875;True;right;1,5;0,0;1;right;0,81200003624
BBW97w;2017-06-01-12-13-16;8;18;1,19330220838;False;both;1,9;-0,15;-1;neither;0,59600019455
BBW97w;2017-06-01-12-13-16;8;19;0,818269313088;True;left;1,9;0,15;-1;neither;0,629999876022
BBW97w;2017-06-01-12-13-16;8;20;0,995560282132;False;right;1,5;-0,15;1;neither;0,375999927521
BBW97w;2017-06-01-12-13-16;8;21;1,07804429049;True;right;1,1;0,15;-1;neither;0,3109998703
BBW97w;2017-06-01-12-13-16;8;22;0,888057332999;False;left;1,7;0,0;-1;neither;0,420000076294
BBW97w;2017-06-01-12-13-16;8;23;0,97030023916;True;right;1,3;0,0;-1;neither;0,37099981308
BBW97w;2017-06-01-12-13-16;8;24;1,19204788375;False;left;1,7;0,0;-1;neither;0,398999929428
BBW97w;2017-06-01-12-13-16;8;25;1,10036126477;True;right;1,9;-0,15;-1;right;0,381000041962
BBW97w;2017-06-01-12-13-16;8;26;0,86382203103;False;left;1,5;0,0;1;neither;1,00699996948
BBW97w;2017-06-01-12-13-16;8;27;0,991823414871;True;both;1,7;0,0;-1;neither;0,386000156403
BBW97w;2017-06-01-12-13-16;8;28;0,842133206969;False;left;1,1;0,15;1;neither;0,354000091553
BBW97w;2017-06-01-12-13-16;8;29;1,17888441875;True;left;1,5;0,0;-1;both;0,519000053406
BBW97w;2017-06-01-12-13-16;8;30;0,958962771204;False;left;1,5;-0,15;1;neither;0,396999835968
BBW97w;2017-06-01-12-13-16;8;31;1,05602128361;True;neither;1,3;-0,15;1;neither;0,561000108719
BBW97w;2017-06-01-12-13-16;8;32;1,17964300227;False;neither;1,3;0,0;-1;neither;0,354000091553
BBW97w;2017-06-01-12-13-16;8;33;1,13283586438;True;both;1,1;-0,15;1;both;0,282999992371
BBW97w;2017-06-01-12-13-16;8;34;1,18323353483;False;neither;1,3;0,15;1;neither;1,27099990845
BBW97w;2017-06-01-12-13-16;8;35;0,868068994458;True;left;1,1;-0,15;-1;neither;0,355000019073
BBW97w;2017-06-01-12-13-16;8;36;0,882841627431;False;left;1,1;0,0;1;neither;0,411000013351
BBW97w;2017-06-01-12-13-16;8;37;1,04684938134;True;right;1,7;-0,15;1;neither;0,426000118256
BBW97w;2017-06-01-12-13-16;8;38;1,0198830142;False;right;1,7;0,0;1;neither;0,0
BBW97w;2017-06-01-12-13-16;8;39;0,955783754739;True;left;1,9;-0,15;1;both;0,430999994278
BBW97w;2017-06-01-12-13-16;8;40;0,957251077791;False;both;1,7;0,15;-1;right;1,61800003052
BBW97w;2017-06-01-12-13-16;8;41;0,884110678674;True;both;1,1;0,15;1;both;0,0
BBW97w;2017-06-01-12-13-16;8;42;1,00610590565;False;right;1,9;0,0;-1;neither;0,444000005722
BBW97w;2017-06-01-12-13-16;8;43;1,15250067117;True;neither;1,1;0,0;1;neither;0,77999997139
BBW97w;2017-06-01-12-13-16;8;44;1,00781045118;False;right;1,1;0,0;1;neither;0,433000087738
BBW97w;2017-06-01-12-13-16;8;45;1,17592795299;True;right;1,1;0,15;-1;neither;0,606999874115
BBW97w;2017-06-01-12-13-16;9;1;0,927311577898;False;right;1,3;0,0;-1;neither;0,375
BBW97w;2017-06-01-12-13-16;9;2;0,922209872536;True;right;1,7;0,0;-1;right;0,533999919891
BBW97w;2017-06-01-12-13-16;9;3;1,06473641236;False;right;1,9;0,15;-1;neither;0,666000127792
BBW97w;2017-06-01-12-13-16;9;4;0,832069223105;True;left;1,7;0,15;-1;neither;0,417000055313
BBW97w;2017-06-01-12-13-16;9;5;0,911057906221;False;both;1,5;0,15;1;neither;0,43799996376
BBW97w;2017-06-01-12-13-16;9;6;0,802105467041;True;left;1,9;-0,15;1;neither;0,378999948502
BBW97w;2017-06-01-12-13-16;9;7;0,935769024632;False;neither;1,3;0,0;-1;neither;0,674000024796
BBW97w;2017-06-01-12-13-16;9;8;0,86313008044;True;right;1,3;-0,15;1;neither;0,398000001907
BBW97w;2017-06-01-12-13-16;9;9;1,13923952852;False;right;1,5;0,15;1;neither;0,475999832153
BBW97w;2017-06-01-12-13-16;9;10;0,926911327774;True;both;1,1;-0,15;-1;neither;0,387000083923
BBW97w;2017-06-01-12-13-16;9;11;1,05118750241;False;right;1,7;0,15;-1;neither;0,434000015259
BBW97w;2017-06-01-12-13-16;9;12;0,829543211783;True;left;1,7;-0,15;1;neither;0,371000051498
BBW97w;2017-06-01-12-13-16;9;13;0,92317157871;False;right;1,9;0,0;1;neither;0,411000013351
BBW97w;2017-06-01-12-13-16;9;14;0,987527509031;True;right;1,9;-0,15;1;neither;0,388999938965
BBW97w;2017-06-01-12-13-16;9;15;0,998688183708;False;both;1,5;-0,15;-1;right;0,513000011444
BBW97w;2017-06-01-12-13-16;9;16;1,0737334957;True;right;1,1;0,0;1;neither;0,651999950409
BBW97w;2017-06-01-12-13-16;9;17;0,962083782115;False;left;1,9;0,15;1;neither;0,595999956131
BBW97w;2017-06-01-12-13-16;9;18;1,17956791793;True;left;1,5;-0,15;1;neither;0,366999864578
BBW97w;2017-06-01-12-13-16;9;19;0,910702183642;False;right;1,5;-0,15;-1;neither;0,361999988556
BBW97w;2017-06-01-12-13-16;9;20;1,15062727726;True;both;1,3;0,15;-1;neither;0,325999975204
BBW97w;2017-06-01-12-13-16;9;21;1,12943327274;False;right;1,5;0,0;1;neither;0,31299996376
BBW97w;2017-06-01-12-13-16;9;22;0,838636643578;True;right;1,1;0,15;-1;right;0,405999898911
BBW97w;2017-06-01-12-13-16;9;23;0,866027542164;False;neither;1,5;0,0;-1;neither;0,648999929428
BBW97w;2017-06-01-12-13-16;9;24;0,883752376095;True;left;1,3;0,0;-1;neither;0,542999982834
BBW97w;2017-06-01-12-13-16;9;25;0,818148366894;False;both;1,7;-0,15;-1;neither;0,37700009346
BBW97w;2017-06-01-12-13-16;9;26;0,94267132499;True;neither;1,3;-0,15;-1;neither;0,348999977112
BBW97w;2017-06-01-12-13-16;9;27;1,03236726295;False;neither;1,3;0,15;-1;neither;0,463000059128
BBW97w;2017-06-01-12-13-16;9;28;1,03923791222;True;left;1,1;0,15;-1;neither;0,571000099182
BBW97w;2017-06-01-12-13-16;9;29;1,0358196195;False;left;1,5;0,15;1;neither;0,285000085831
BBW97w;2017-06-01-12-13-16;9;30;0,996080447978;True;right;1,9;0,0;1;neither;0,431999921799
BBW97w;2017-06-01-12-13-16;9;31;1,04883350768;False;neither;1,7;0,15;1;neither;0,375
BBW97w;2017-06-01-12-13-16;9;32;1,15586579754;True;both;1,3;-0,15;-1;neither;0,343999862671
BBW97w;2017-06-01-12-13-16;9;33;0,869070860552;False;left;1,3;0,15;1;neither;0,322999954224
BBW97w;2017-06-01-12-13-16;9;34;1,01469204712;True;right;1,7;0,0;-1;neither;0,577999830246
BBW97w;2017-06-01-12-13-16;9;35;1,09558115124;False;neither;1,1;0,0;-1;neither;0,456000089645
BBW97w;2017-06-01-12-13-16;9;36;0,876735826683;True;both;1,7;0,15;-1;neither;0,361000061035
BBW97w;2017-06-01-12-13-16;9;37;1,19820258369;False;right;1,7;0,15;-1;neither;0,361000061035
BBW97w;2017-06-01-12-13-16;9;38;0,839291309277;True;left;1,7;0,0;-1;neither;0,375
BBW97w;2017-06-01-12-13-16;9;39;0,813406757937;False;right;1,3;0,0;1;right;0,370000123978
BBW97w;2017-06-01-12-13-16;9;40;0,934168151294;True;left;1,5;0,0;1;neither;0,416000127792
BBW97w;2017-06-01-12-13-16;9;41;0,988189327546;False;left;1,7;0,0;-1;neither;0,609999895096
BBW97w;2017-06-01-12-13-16;9;42;1,15165715038;True;neither;1,1;0,15;-1;neither;0,805999994278
BBW97w;2017-06-01-12-13-16;9;43;0,93636263437;False;left;1,3;-0,15;-1;neither;0,371999979019
BBW97w;2017-06-01-12-13-16;9;44;1,1654091562;True;neither;1,7;-0,15;-1;neither;0,370000123978
BBW97w;2017-06-01-12-13-16;9;45;0,818136870796;False;neither;1,9;-0,15;1;neither;0,408999919891
BBW97w;2017-06-01-12-13-16;10;1;1,18984838947;True;right;1,3;0,0;1;right;0,848000049591
BBW97w;2017-06-01-12-13-16;10;2;0,86439182861;False;right;1,7;0,0;-1;right;0,449000120163
BBW97w;2017-06-01-12-13-16;10;3;0,85715464029;True;right;1,9;0,15;-1;right;0,365000009537
BBW97w;2017-06-01-12-13-16;10;4;0,935124069029;False;left;1,7;0,15;1;neither;0,394000053406
BBW97w;2017-06-01-12-13-16;10;5;0,802122166541;True;both;1,5;0,15;-1;right;0,830999851227
BBW97w;2017-06-01-12-13-16;10;6;1,00754875941;False;left;1,9;-0,15;-1;neither;0,410000085831
BBW97w;2017-06-01-12-13-16;10;7;1,0982007435;True;neither;1,3;0,0;1;neither;0,298000097275
BBW97w;2017-06-01-12-13-16;10;8;0,874058747764;False;right;1,3;-0,15;-1;both;0,625999927521
BBW97w;2017-06-01-12-13-16;10;9;0,934233505719;True;right;1,5;0,15;1;both;0,37900018692
BBW97w;2017-06-01-12-13-16;10;10;1,04122623186;False;both;1,1;-0,15;-1;left;0,0
BBW97w;2017-06-01-12-13-16;10;11;0,886220460872;True;right;1,7;0,15;-1;neither;0,661999940872
BBW97w;2017-06-01-12-13-16;10;12;1,0569786265;False;left;1,7;-0,15;1;neither;0,322999954224
BBW97w;2017-06-01-12-13-16;10;13;0,887614069931;True;right;1,9;0,0;1;neither;0,423000097275
BBW97w;2017-06-01-12-13-16;10;14;0,97723835846;False;right;1,9;-0,15;1;neither;0,3109998703
BBW97w;2017-06-01-12-13-16;10;15;1,1783499478;True;both;1,5;-0,15;1;neither;0,328000068665
BBW97w;2017-06-01-12-13-16;10;16;1,02108515832;False;right;1,1;0,0;-1;neither;0,407999992371
BBW97w;2017-06-01-12-13-16;10;17;0,835617885213;True;left;1,9;0,15;1;left;0,467000007629
BBW97w;2017-06-01-12-13-16;10;18;0,800037608988;False;left;1,5;-0,15;-1;both;0,405999898911
BBW97w;2017-06-01-12-13-16;10;19;1,14423035257;True;right;1,5;-0,15;1;neither;0,440999984741
BBW97w;2017-06-01-12-13-16;10;20;0,973703943113;False;both;1,3;0,15;1;left;0,585999965668
BBW97w;2017-06-01-12-13-16;10;21;1,11324588639;True;right;1,5;0,0;1;neither;0,363000154495
BBW97w;2017-06-01-12-13-16;10;22;1,04405349231;False;right;1,1;0,15;-1;neither;0,361999988556
BBW97w;2017-06-01-12-13-16;10;23;1,1458594675;True;neither;1,5;0,0;-1;neither;0,323000192642
BBW97w;2017-06-01-12-13-16;10;24;0,806206325268;False;left;1,3;0,0;-1;left;0,308000087738
BBW97w;2017-06-01-12-13-16;10;25;1,01135578257;True;both;1,7;-0,15;-1;left;0,916999816895
BBW97w;2017-06-01-12-13-16;10;26;1,1846314893;False;neither;1,3;-0,15;1;neither;0,496000051498
BBW97w;2017-06-01-12-13-16;10;27;0,808180253843;True;neither;1,3;0,15;1;neither;0,30999994278
BBW97w;2017-06-01-12-13-16;10;28;0,801955158787;False;left;1,1;0,15;1;left;0,325000047684
BBW97w;2017-06-01-12-13-16;10;29;0,863860118197;True;left;1,5;0,15;-1;neither;0,540999889374
BBW97w;2017-06-01-12-13-16;10;30;0,917165985937;False;right;1,9;0,0;1;neither;0,332000017166
BBW97w;2017-06-01-12-13-16;10;31;0,932512112346;True;neither;1,7;0,15;1;neither;0,401999950409
BBW97w;2017-06-01-12-13-16;10;32;1,07663902207;False;both;1,3;-0,15;-1;both;0,462000131607
BBW97w;2017-06-01-12-13-16;10;33;0,952597375093;True;left;1,3;0,15;-1;neither;0,403000116348
BBW97w;2017-06-01-12-13-16;10;34;1,17118323726;False;right;1,7;0,0;-1;neither;0,412000179291
BBW97w;2017-06-01-12-13-16;10;35;0,867130897269;True;neither;1,1;0,0;1;neither;0,395999908447
BBW97w;2017-06-01-12-13-16;10;36;1,13892985403;False;both;1,7;0,15;-1;neither;0,513999938965
BBW97w;2017-06-01-12-13-16;10;37;1,15333069347;True;right;1,7;0,15;1;neither;0,424000024796
BBW97w;2017-06-01-12-13-16;10;38;1,10999585301;False;left;1,7;0,0;1;neither;0,301999807358
BBW97w;2017-06-01-12-13-16;10;39;1,15845170674;True;right;1,3;0,0;1;neither;0,339999914169
BBW97w;2017-06-01-12-13-16;10;40;1,17625771124;False;left;1,5;0,0;-1;neither;0,305000066757
BBW97w;2017-06-01-12-13-16;10;41;0,852652854044;True;left;1,7;0,0;1;both;0,5640001297
BBW97w;2017-06-01-12-13-16;10;42;1,18272319172;False;neither;1,1;0,15;-1;neither;0,819000005722
BBW97w;2017-06-01-12-13-16;10;43;1,1832275192;True;left;1,3;-0,15;1;neither;0,307000160217
BBW97w;2017-06-01-12-13-16;10;44;0,904272791837;False;neither;1,7;-0,15;-1;both;0,542999982834
BBW97w;2017-06-01-12-13-16;10;45;1,02568064359;True;neither;1,9;-0,15;1;both;0,219000101089
