Observer;SessionID;Block;Trial;OnsetDelay;Yellow;Switch;SwitchTime;Gap;Direction;Response;RT
MCB93w;2017-06-01-13-34-30;1;1;0,946602871038;True;right;1,1;0,0;-1;neither;3,92899990082
MCB93w;2017-06-01-13-34-30;1;2;1,08628952385;False;right;1,3;0,15;-1;right;6,56599998474
MCB93w;2017-06-01-13-34-30;1;3;1,17729935428;True;both;1,3;0,0;-1;both;1,53400015831
MCB93w;2017-06-01-13-34-30;1;4;1,09591753208;False;right;1,9;0,0;-1;right;2,33400011063
MCB93w;2017-06-01-13-34-30;1;5;1,07936453021;True;neither;1,7;-0,15;-1;neither;2,41600012779
MCB93w;2017-06-01-13-34-30;1;6;1,01395651394;False;both;1,7;0,0;1;neither;0,84500002861
MCB93w;2017-06-01-13-34-30;1;7;1,12779243218;True;left;1,5;0,0;-1;left;0,741999864578
MCB93w;2017-06-01-13-34-30;1;8;1,12617436898;False;right;1,3;0,0;-1;right;0,633000135422
MCB93w;2017-06-01-13-34-30;1;9;1,01674164646;True;right;1,3;0,15;1;right;0,954000234604
MCB93w;2017-06-01-13-34-30;1;10;1,06938349452;False;both;1,1;-0,15;-1;both;1,96399998665
MCB93w;2017-06-01-13-34-30;1;11;1,14988818919;True;left;1,5;0,15;-1;left;0,728000164032
MCB93w;2017-06-01-13-34-30;1;12;1,15138031826;False;right;1,9;-0,15;1;right;0,78200006485
MCB93w;2017-06-01-13-34-30;1;13;0,836801793069;True;both;1,5;0,0;1;both;1,79200005531
MCB93w;2017-06-01-13-34-30;1;14;1,112761448;False;right;1,7;0,15;1;right;0,871999979019
MCB93w;2017-06-01-13-34-30;1;15;0,962311659917;True;both;1,5;0,15;1;right;0,804999828339
MCB93w;2017-06-01-13-34-30;1;16;1,05994198675;False;left;1,7;0,0;1;left;0,828000068665
MCB93w;2017-06-01-13-34-30;1;17;0,865830308927;True;both;1,9;-0,15;-1;both;0,629999876022
MCB93w;2017-06-01-13-34-30;1;18;1,06086138342;False;both;1,1;0,15;1;both;0,52799987793
MCB93w;2017-06-01-13-34-30;1;19;0,809277187792;True;right;1,5;0,0;1;both;0,623999834061
MCB93w;2017-06-01-13-34-30;1;20;1,03548377276;False;neither;1,7;0,15;1;neither;1,1930000782
MCB93w;2017-06-01-13-34-30;1;21;0,88241529386;True;right;1,5;0,0;1;right;0,49799990654
MCB93w;2017-06-01-13-34-30;1;22;0,809664792933;False;left;1,3;0,0;1;left;0,559000015259
MCB93w;2017-06-01-13-34-30;1;23;0,852761516626;True;neither;1,3;0,0;-1;neither;1,32899999619
MCB93w;2017-06-01-13-34-30;1;24;1,02113226619;False;left;1,7;0,15;1;left;0,59299993515
MCB93w;2017-06-01-13-34-30;1;25;1,02937175626;True;right;1,9;0,15;1;both;0,855000019073
MCB93w;2017-06-01-13-34-30;1;26;0,811398576419;False;right;1,9;0,0;1;right;0,75
MCB93w;2017-06-01-13-34-30;1;27;0,942018235024;True;neither;1,9;0,15;-1;neither;1,16100001335
MCB93w;2017-06-01-13-34-30;1;28;1,12084456097;False;right;1,9;0,15;1;neither;1,03099989891
MCB93w;2017-06-01-13-34-30;1;29;1,07230079125;True;left;1,9;-0,15;1;left;0,959999799728
MCB93w;2017-06-01-13-34-30;1;30;1,07931815857;False;left;1,1;0,15;1;left;0,605999946594
MCB93w;2017-06-01-13-34-30;1;31;0,954823182506;True;neither;1,1;0,0;1;neither;1,0569999218
MCB93w;2017-06-01-13-34-30;1;32;0,829281698797;False;neither;1,1;0,15;1;neither;0,883999824524
MCB93w;2017-06-01-13-34-30;1;33;0,952744107552;True;right;1,7;-0,15;-1;both;0,53200006485
MCB93w;2017-06-01-13-34-30;1;34;0,926503017027;False;left;1,7;-0,15;1;both;0,871000051498
MCB93w;2017-06-01-13-34-30;1;35;0,803116973576;True;left;1,9;0,0;1;left;0,643000125885
MCB93w;2017-06-01-13-34-30;1;36;1,07750529785;False;right;1,1;0,0;1;both;1,31900000572
MCB93w;2017-06-01-13-34-30;1;37;0,950835771762;True;left;1,3;-0,15;-1;left;0,56500005722
MCB93w;2017-06-01-13-34-30;1;38;1,15927747437;False;right;1,3;-0,15;-1;left;0,966000080109
MCB93w;2017-06-01-13-34-30;1;39;0,948539889735;True;right;1,3;0,0;-1;right;0,405999898911
MCB93w;2017-06-01-13-34-30;1;40;0,993147523796;False;left;1,1;-0,15;-1;left;0,598000049591
MCB93w;2017-06-01-13-34-30;1;41;1,14453405656;True;left;1,5;-0,15;1;neither;1,1210000515
MCB93w;2017-06-01-13-34-30;1;42;0,853356902432;False;left;1,7;0,0;-1;left;0,522000074387
MCB93w;2017-06-01-13-34-30;1;43;1,12529012194;True;right;1,5;0,15;-1;right;0,501999855042
MCB93w;2017-06-01-13-34-30;1;44;0,90401021013;False;right;1,9;-0,15;1;neither;0,787999868393
MCB93w;2017-06-01-13-34-30;1;45;1,02700787631;True;right;1,7;0,0;-1;right;0,568000078201
MCB93w;2017-06-01-13-34-30;2;1;1,04543507983;False;right;1,1;0,0;1;both;1,07099986076
MCB93w;2017-06-01-13-34-30;2;2;0,89557417478;True;right;1,3;0,15;1;neither;0,650000095367
MCB93w;2017-06-01-13-34-30;2;3;0,988409076839;False;both;1,3;0,0;-1;both;0,674000024796
MCB93w;2017-06-01-13-34-30;2;4;0,918503086116;True;right;1,9;0,0;-1;both;1,19699978828
MCB93w;2017-06-01-13-34-30;2;5;1,17602338638;False;neither;1,7;-0,15;-1;neither;0,694000005722
MCB93w;2017-06-01-13-34-30;2;6;0,809865693194;True;both;1,7;0,0;-1;both;0,746000051498
MCB93w;2017-06-01-13-34-30;2;7;1,03462105265;False;left;1,5;0,0;1;both;1,00400018692
MCB93w;2017-06-01-13-34-30;2;8;0,948771702219;True;right;1,3;0,0;1;right;0,600000143051
MCB93w;2017-06-01-13-34-30;2;9;1,07253833114;False;right;1,3;0,15;1;right;0,504999876022
MCB93w;2017-06-01-13-34-30;2;10;0,969011444449;True;both;1,1;-0,15;-1;both;1,02799987793
MCB93w;2017-06-01-13-34-30;2;11;1,07696208166;False;left;1,5;0,15;1;neither;0,709000110626
MCB93w;2017-06-01-13-34-30;2;12;0,885435458459;True;right;1,9;-0,15;-1;both;0,690999984741
MCB93w;2017-06-01-13-34-30;2;13;1,10504489345;False;both;1,5;0,0;1;both;0,674000024796
MCB93w;2017-06-01-13-34-30;2;14;1,18710128621;True;right;1,7;0,15;-1;neither;0,690999984741
MCB93w;2017-06-01-13-34-30;2;15;1,08077744958;False;both;1,5;0,15;1;right;0,917999982834
MCB93w;2017-06-01-13-34-30;2;16;0,851846462795;True;left;1,7;0,0;-1;left;0,642999887466
MCB93w;2017-06-01-13-34-30;2;17;1,1920422785;False;both;1,9;-0,15;1;both;0,954999923706
MCB93w;2017-06-01-13-34-30;2;18;0,961563414889;True;both;1,1;0,15;1;both;0,618999958038
MCB93w;2017-06-01-13-34-30;2;19;1,01590851153;False;right;1,5;0,0;1;neither;1,02399992943
MCB93w;2017-06-01-13-34-30;2;20;1,08836560333;True;neither;1,7;0,15;-1;neither;0,65099978447
MCB93w;2017-06-01-13-34-30;2;21;1,02323658553;False;right;1,5;0,0;-1;both;0,626999855042
MCB93w;2017-06-01-13-34-30;2;22;0,926258757588;True;left;1,3;0,0;-1;neither;0,503999948502
MCB93w;2017-06-01-13-34-30;2;23;1,05605305392;False;neither;1,3;0,0;1;neither;0,598999977112
MCB93w;2017-06-01-13-34-30;2;24;1,04144147637;True;left;1,7;0,15;1;left;0,618999958038
MCB93w;2017-06-01-13-34-30;2;25;1,17426699627;False;right;1,9;0,15;1;right;0,701999902725
MCB93w;2017-06-01-13-34-30;2;26;1,16476360661;True;right;1,9;0,0;-1;both;0,697999954224
MCB93w;2017-06-01-13-34-30;2;27;0,886156077765;False;neither;1,9;0,15;-1;neither;1,03600001335
MCB93w;2017-06-01-13-34-30;2;28;1,11241327843;True;right;1,9;0,15;-1;right;0,535000085831
MCB93w;2017-06-01-13-34-30;2;29;0,931359753517;False;left;1,9;-0,15;1;left;0,645999908447
MCB93w;2017-06-01-13-34-30;2;30;1,0721631708;True;left;1,1;0,15;-1;left;0,398000001907
MCB93w;2017-06-01-13-34-30;2;31;0,901320356618;False;neither;1,1;0,0;-1;neither;0,871000051498
MCB93w;2017-06-01-13-34-30;2;32;1,02690032774;True;neither;1,1;0,15;1;neither;0,859000205994
MCB93w;2017-06-01-13-34-30;2;33;0,895426189929;False;right;1,7;-0,15;-1;both;0,719000101089
MCB93w;2017-06-01-13-34-30;2;34;0,85242352297;True;left;1,7;-0,15;-1;left;0,661000013351
MCB93w;2017-06-01-13-34-30;2;35;1,16580905612;False;left;1,9;0,0;1;both;0,806999921799
MCB93w;2017-06-01-13-34-30;2;36;1,11615168327;True;right;1,1;0,0;-1;neither;0,973000049591
MCB93w;2017-06-01-13-34-30;2;37;0,852967496304;False;left;1,3;-0,15;-1;left;0,511999845505
MCB93w;2017-06-01-13-34-30;2;38;1,04891259431;True;right;1,3;-0,15;-1;right;0,351999998093
MCB93w;2017-06-01-13-34-30;2;39;0,935240322402;False;right;1,3;0,0;-1;right;0,658999919891
MCB93w;2017-06-01-13-34-30;2;40;1,04598870942;True;left;1,1;-0,15;-1;both;0,501000165939
MCB93w;2017-06-01-13-34-30;2;41;1,00868089232;False;left;1,5;-0,15;-1;left;0,536999940872
MCB93w;2017-06-01-13-34-30;2;42;0,895588838722;True;left;1,7;0,0;-1;left;0,701999902725
MCB93w;2017-06-01-13-34-30;2;43;0,97138125633;False;right;1,5;0,15;-1;right;0,881000041962
MCB93w;2017-06-01-13-34-30;2;44;1,13181283773;True;right;1,9;-0,15;1;right;0,93399977684
MCB93w;2017-06-01-13-34-30;2;45;0,957859708535;False;right;1,7;0,0;-1;both;3,47799992561
MCB93w;2017-06-01-13-34-30;3;1;0,812397440848;True;left;1,5;-0,15;-1;left;0,444999933243
MCB93w;2017-06-01-13-34-30;3;2;0,999567650506;False;both;1,1;0,0;1;both;0,473000049591
MCB93w;2017-06-01-13-34-30;3;3;0,894631264817;True;neither;1,7;0,0;-1;neither;0,973000049591
MCB93w;2017-06-01-13-34-30;3;4;0,832448626473;False;left;1,7;0,15;-1;neither;0,677999973297
MCB93w;2017-06-01-13-34-30;3;5;1,12750089148;True;neither;1,3;-0,15;-1;neither;0,786000013351
MCB93w;2017-06-01-13-34-30;3;6;1,10455423306;False;both;1,9;-0,15;-1;both;1,73000001907
MCB93w;2017-06-01-13-34-30;3;7;1,07782055296;True;left;1,7;0,0;1;both;0,551999807358
MCB93w;2017-06-01-13-34-30;3;8;1,03931547556;False;left;1,5;0,0;1;neither;1,01399993896
MCB93w;2017-06-01-13-34-30;3;9;0,948043493473;True;left;1,1;0,15;-1;neither;0,670000076294
MCB93w;2017-06-01-13-34-30;3;10;1,04026505201;False;left;1,3;0,15;-1;neither;0,595999956131
MCB93w;2017-06-01-13-34-30;3;11;1,03559362353;True;left;1,9;0,0;1;neither;0,790999889374
MCB93w;2017-06-01-13-34-30;3;12;1,11036606968;False;left;1,9;0,0;-1;neither;0,790999889374
MCB93w;2017-06-01-13-34-30;3;13;1,01614441368;True;right;1,1;-0,15;1;neither;0,567999839783
MCB93w;2017-06-01-13-34-30;3;14;0,882358779266;False;left;1,1;-0,15;-1;both;0,694000005722
MCB93w;2017-06-01-13-34-30;3;15;1,15595071434;True;neither;1,9;0,0;-1;neither;0,646999835968
MCB93w;2017-06-01-13-34-30;3;16;0,863797622893;False;both;1,1;0,15;1;both;0,513999938965
MCB93w;2017-06-01-13-34-30;3;17;1,15975730867;True;right;1,9;-0,15;-1;neither;0,732000112534
MCB93w;2017-06-01-13-34-30;3;18;1,19062836081;False;right;1,5;-0,15;1;both;0,59299993515
MCB93w;2017-06-01-13-34-30;3;19;1,15559378178;True;right;1,5;0,15;-1;neither;0,553999900818
MCB93w;2017-06-01-13-34-30;3;20;0,830959629527;False;neither;1,5;-0,15;-1;neither;1,06299996376
MCB93w;2017-06-01-13-34-30;3;21;0,939995649931;True;right;1,1;0,0;-1;right;0,414000034332
MCB93w;2017-06-01-13-34-30;3;22;1,07781615412;False;neither;1,9;-0,15;1;neither;0,875999927521
MCB93w;2017-06-01-13-34-30;3;23;1,02272420377;True;left;1,3;-0,15;1;both;1,24399995804
MCB93w;2017-06-01-13-34-30;3;24;0,949288339617;False;left;1,1;0,0;1;neither;0,849999904633
MCB93w;2017-06-01-13-34-30;3;25;0,849172418568;True;both;1,9;0,0;-1;both;0,537999868393
MCB93w;2017-06-01-13-34-30;3;26;0,992458216141;False;left;1,3;-0,15;-1;both;0,717000007629
MCB93w;2017-06-01-13-34-30;3;27;1,01879073701;True;right;1,7;0,0;-1;neither;0,609999895096
MCB93w;2017-06-01-13-34-30;3;28;1,03366372367;False;right;1,9;0,15;1;both;1,36100006104
MCB93w;2017-06-01-13-34-30;3;29;1,08549339685;True;both;1,5;0,0;1;both;1,81500005722
MCB93w;2017-06-01-13-34-30;3;30;1,05685242749;False;right;1,1;0,15;-1;right;0,394000053406
MCB93w;2017-06-01-13-34-30;3;31;0,958610598821;True;neither;1,3;0,15;-1;neither;0,944000005722
MCB93w;2017-06-01-13-34-30;3;32;1,08065373983;False;neither;1,9;0,15;-1;neither;0,835000038147
MCB93w;2017-06-01-13-34-30;3;33;0,956861812946;True;right;1,9;-0,15;-1;neither;0,575999975204
MCB93w;2017-06-01-13-34-30;3;34;1,00583625958;False;right;1,5;0,15;-1;neither;0,639999866486
MCB93w;2017-06-01-13-34-30;3;35;1,05544245109;True;neither;1,7;-0,15;1;neither;0,675000190735
MCB93w;2017-06-01-13-34-30;3;36;0,83480929961;False;both;1,7;-0,15;1;neither;0,740000009537
MCB93w;2017-06-01-13-34-30;3;37;1,03996854067;True;left;1,5;0,0;1;neither;0,843999862671
MCB93w;2017-06-01-13-34-30;3;38;1,17655288927;False;left;1,5;-0,15;1;neither;0,519999980927
MCB93w;2017-06-01-13-34-30;3;39;1,17461170605;True;both;1,3;-0,15;-1;both;0,618999958038
MCB93w;2017-06-01-13-34-30;3;40;1,07769379542;False;right;1,3;0,15;-1;neither;1,05300021172
MCB93w;2017-06-01-13-34-30;3;41;1,15992319349;True;right;1,5;-0,15;-1;both;0,570000171661
MCB93w;2017-06-01-13-34-30;3;42;0,864341108303;False;right;1,7;0,15;1;right;0,611999988556
MCB93w;2017-06-01-13-34-30;3;43;0,964914125759;True;both;1,9;0,15;-1;both;1,07999992371
MCB93w;2017-06-01-13-34-30;3;44;0,813860647112;False;both;1,7;0,15;-1;both;0,799000024796
MCB93w;2017-06-01-13-34-30;3;45;1,00935391797;True;left;1,9;-0,15;-1;both;0,55999994278
MCB93w;2017-06-01-13-34-30;4;1;0,827332908481;False;left;1,5;-0,15;1;both;0,766999959946
MCB93w;2017-06-01-13-34-30;4;2;0,86928479513;True;both;1,1;0,0;1;neither;0,711999893188
MCB93w;2017-06-01-13-34-30;4;3;0,841944559204;False;neither;1,7;0,0;1;neither;0,59500002861
MCB93w;2017-06-01-13-34-30;4;4;0,888913917034;True;left;1,7;0,15;1;left;0,520999908447
MCB93w;2017-06-01-13-34-30;4;5;0,918609281493;False;neither;1,3;-0,15;-1;neither;0,759000062943
MCB93w;2017-06-01-13-34-30;4;6;0,846258303833;True;both;1,9;-0,15;-1;both;0,427000045776
MCB93w;2017-06-01-13-34-30;4;7;1,02051614333;False;left;1,7;0,0;1;left;2,33200001717
MCB93w;2017-06-01-13-34-30;4;8;1,09296815864;True;left;1,5;0,0;-1;both;0,515000104904
MCB93w;2017-06-01-13-34-30;4;9;1,01168752176;False;left;1,1;0,15;-1;left;0,411000013351
MCB93w;2017-06-01-13-34-30;4;10;0,91886268374;True;left;1,3;0,15;-1;left;0,423000097275
MCB93w;2017-06-01-13-34-30;4;11;1,06446756368;False;left;1,9;0,0;-1;left;0,576000213623
MCB93w;2017-06-01-13-34-30;4;12;0,842165141621;True;left;1,9;0,0;1;left;0,583999872208
MCB93w;2017-06-01-13-34-30;4;13;1,18720112292;False;right;1,1;-0,15;1;right;0,586999893188
MCB93w;2017-06-01-13-34-30;4;14;0,813188863059;True;left;1,1;-0,15;-1;neither;0,783999919891
MCB93w;2017-06-01-13-34-30;4;15;0,919505998977;False;neither;1,9;0,0;-1;neither;0,980000019073
MCB93w;2017-06-01-13-34-30;4;16;1,12948521262;True;both;1,1;0,15;-1;neither;0,550999879837
MCB93w;2017-06-01-13-34-30;4;17;0,886476745182;False;right;1,9;-0,15;-1;neither;1,57699990273
MCB93w;2017-06-01-13-34-30;4;18;1,13356493601;True;right;1,5;-0,15;1;both;0,628000020981
MCB93w;2017-06-01-13-34-30;4;19;1,17090440422;False;right;1,5;0,15;1;right;0,411000013351
MCB93w;2017-06-01-13-34-30;4;20;1,14536173124;True;neither;1,5;-0,15;1;neither;0,766000032425
MCB93w;2017-06-01-13-34-30;4;21;1,05888984038;False;right;1,1;0,0;-1;right;0,388999938965
MCB93w;2017-06-01-13-34-30;4;22;0,962324320862;True;neither;1,9;-0,15;-1;neither;0,693000078201
MCB93w;2017-06-01-13-34-30;4;23;1,13839114024;False;left;1,3;-0,15;-1;both;0,917000055313
MCB93w;2017-06-01-13-34-30;4;24;0,842952404138;True;left;1,1;0,0;-1;left;0,458999872208
MCB93w;2017-06-01-13-34-30;4;25;0,921769555937;False;both;1,9;0,0;-1;both;1,35599994659
MCB93w;2017-06-01-13-34-30;4;26;1,17777946378;True;left;1,3;-0,15;1;left;0,417000055313
MCB93w;2017-06-01-13-34-30;4;27;1,1520893803;False;right;1,7;0,0;-1;both;1,45699977875
MCB93w;2017-06-01-13-34-30;4;28;0,998487118647;True;right;1,9;0,15;-1;right;0,62900018692
MCB93w;2017-06-01-13-34-30;4;29;0,939906114035;False;both;1,5;0,0;-1;both;0,644999980927
MCB93w;2017-06-01-13-34-30;4;30;0,99050024094;True;right;1,1;0,15;-1;right;0,59700012207
MCB93w;2017-06-01-13-34-30;4;31;0,846298272166;False;neither;1,3;0,15;-1;neither;0,625
MCB93w;2017-06-01-13-34-30;4;32;1,07865849148;True;neither;1,9;0,15;1;neither;0,635999917984
MCB93w;2017-06-01-13-34-30;4;33;1,09978307751;False;right;1,9;-0,15;1;neither;0,731000185013
MCB93w;2017-06-01-13-34-30;4;34;1,11994811732;True;right;1,5;0,15;1;neither;1,27799987793
MCB93w;2017-06-01-13-34-30;4;35;0,971055109942;False;neither;1,7;-0,15;1;neither;1,00200009346
MCB93w;2017-06-01-13-34-30;4;36;0,963159008554;True;both;1,7;-0,15;1;both;0,475000143051
MCB93w;2017-06-01-13-34-30;4;37;0,805203898833;False;left;1,5;0,0;1;neither;0,819999933243
MCB93w;2017-06-01-13-34-30;4;38;0,839938115102;True;left;1,5;-0,15;1;neither;0,40499997139
MCB93w;2017-06-01-13-34-30;4;39;0,984223537822;False;both;1,3;-0,15;-1;both;0,398000001907
MCB93w;2017-06-01-13-34-30;4;40;1,12428096724;True;right;1,3;0,15;-1;right;0,491999864578
MCB93w;2017-06-01-13-34-30;4;41;0,998403732478;False;right;1,5;-0,15;-1;right;0,490000009537
MCB93w;2017-06-01-13-34-30;4;42;1,08502020934;True;right;1,7;0,15;1;right;0,55999994278
MCB93w;2017-06-01-13-34-30;4;43;1,06217714141;False;both;1,9;0,15;-1;both;0,585999965668
MCB93w;2017-06-01-13-34-30;4;44;0,968952963683;True;both;1,7;0,15;1;both;0,730000019073
MCB93w;2017-06-01-13-34-30;4;45;1,05529229786;False;left;1,9;-0,15;-1;neither;0,486999988556
MCB93w;2017-06-01-13-34-30;5;1;0,970100355402;True;both;1,5;0,15;1;both;0,351999998093
MCB93w;2017-06-01-13-34-30;5;2;0,911163790116;False;left;1,5;-0,15;-1;both;0,450999975204
MCB93w;2017-06-01-13-34-30;5;3;0,900304301626;True;left;1,7;-0,15;-1;left;0,40299987793
MCB93w;2017-06-01-13-34-30;5;4;0,924482485971;False;right;1,3;0,15;-1;right;0,52999997139
MCB93w;2017-06-01-13-34-30;5;5;1,1674879844;True;neither;1,1;-0,15;-1;neither;1,18299984932
MCB93w;2017-06-01-13-34-30;5;6;1,18118593745;False;left;1,9;-0,15;1;neither;0,430999994278
MCB93w;2017-06-01-13-34-30;5;7;1,13541820373;True;left;1,3;0,15;-1;neither;0,760000228882
MCB93w;2017-06-01-13-34-30;5;8;0,84261665855;False;right;1,7;-0,15;1;right;0,472999811172
MCB93w;2017-06-01-13-34-30;5;9;1,01732590788;True;both;1,7;0,15;-1;both;1,61500000954
MCB93w;2017-06-01-13-34-30;5;10;0,806669781401;False;left;1,5;-0,15;-1;both;0,928999900818
MCB93w;2017-06-01-13-34-30;5;11;1,12405282419;True;right;1,7;0,0;-1;right;0,594000101089
MCB93w;2017-06-01-13-34-30;5;12;0,926939890999;False;both;1,3;0,15;1;both;0,440999984741
MCB93w;2017-06-01-13-34-30;5;13;0,990988241046;True;left;1,9;0,15;-1;left;0,561999797821
MCB93w;2017-06-01-13-34-30;5;14;0,899349464445;False;right;1,9;0,15;1;right;0,525000095367
MCB93w;2017-06-01-13-34-30;5;15;0,882066707567;True;neither;1,7;0,15;1;neither;0,676000118256
MCB93w;2017-06-01-13-34-30;5;16;0,85022463366;False;right;1,5;-0,15;-1;both;0,460999965668
MCB93w;2017-06-01-13-34-30;5;17;0,882008921115;True;neither;1,3;-0,15;-1;neither;0,574999809265
MCB93w;2017-06-01-13-34-30;5;18;0,884467844232;False;both;1,3;-0,15;1;both;0,531000137329
MCB93w;2017-06-01-13-34-30;5;19;1,06154974968;True;left;1,7;0,15;-1;left;0,640000104904
MCB93w;2017-06-01-13-34-30;5;20;1,17908013443;False;right;1,1;0,15;1;right;0,453000068665
MCB93w;2017-06-01-13-34-30;5;21;0,836473744463;True;both;1,7;0,0;-1;both;0,544999837875
MCB93w;2017-06-01-13-34-30;5;22;1,18713779;False;right;1,5;0,15;1;right;0,711999893188
MCB93w;2017-06-01-13-34-30;5;23;0,847348403183;True;left;1,1;-0,15;1;left;0,443000078201
MCB93w;2017-06-01-13-34-30;5;24;1,02191886119;False;right;1,7;0,15;-1;right;0,509000062943
MCB93w;2017-06-01-13-34-30;5;25;0,843639097798;True;right;1,5;-0,15;1;right;0,329999923706
MCB93w;2017-06-01-13-34-30;5;26;0,856819663977;False;left;1,3;-0,15;-1;neither;0,625999927521
MCB93w;2017-06-01-13-34-30;5;27;1,1982341671;True;left;1,1;-0,15;-1;left;0,396000146866
MCB93w;2017-06-01-13-34-30;5;28;1,05131367982;False;right;1,5;0,15;-1;right;0,543999910355
MCB93w;2017-06-01-13-34-30;5;29;0,88718382892;True;right;1,3;0,0;-1;neither;0,851000070572
MCB93w;2017-06-01-13-34-30;5;30;0,808550257934;False;both;1,5;-0,15;1;both;0,472999811172
MCB93w;2017-06-01-13-34-30;5;31;0,907022405296;True;neither;1,5;0,0;-1;neither;0,376999855042
MCB93w;2017-06-01-13-34-30;5;32;1,06083757097;False;left;1,9;-0,15;-1;both;2,05999994278
MCB93w;2017-06-01-13-34-30;5;33;1,02601232339;True;both;1,9;-0,15;1;both;0,539000034332
MCB93w;2017-06-01-13-34-30;5;34;0,938738764377;False;left;1,1;0,0;1;left;0,34600019455
MCB93w;2017-06-01-13-34-30;5;35;0,847858742169;True;right;1,1;-0,15;1;neither;1,15599989891
MCB93w;2017-06-01-13-34-30;5;36;0,899913093479;False;right;1,7;0,0;1;neither;0,522000074387
MCB93w;2017-06-01-13-34-30;5;37;1,14031411185;True;both;1,1;0,15;-1;neither;0,694999933243
MCB93w;2017-06-01-13-34-30;5;38;0,896578833361;False;left;1,3;0,0;1;left;0,411999940872
MCB93w;2017-06-01-13-34-30;5;39;1,12930998157;True;left;1,5;0,15;-1;left;0,516000032425
MCB93w;2017-06-01-13-34-30;5;40;0,983548818082;False;both;1,9;0,0;1;both;0,539999961853
MCB93w;2017-06-01-13-34-30;5;41;0,854066619174;True;right;1,5;0,0;1;neither;0,574000120163
MCB93w;2017-06-01-13-34-30;5;42;1,0835402457;False;neither;1,9;-0,15;-1;neither;0,46799993515
MCB93w;2017-06-01-13-34-30;5;43;1,10936672264;True;neither;1,3;0,0;-1;neither;1,19799995422
MCB93w;2017-06-01-13-34-30;5;44;1,14203524355;False;left;1,9;0,0;1;left;0,414000034332
MCB93w;2017-06-01-13-34-30;5;45;0,88441352434;True;neither;1,7;-0,15;1;neither;1,59000015259
MCB93w;2017-06-01-13-34-30;6;1;1,02145847311;False;both;1,5;0,15;-1;both;0,388000011444
MCB93w;2017-06-01-13-34-30;6;2;1,10545932874;True;left;1,5;-0,15;1;left;0,328999996185
MCB93w;2017-06-01-13-34-30;6;3;1,0551253888;False;left;1,7;-0,15;-1;both;0,352999925613
MCB93w;2017-06-01-13-34-30;6;4;0,992065708009;True;right;1,3;0,15;-1;neither;0,334000110626
MCB93w;2017-06-01-13-34-30;6;5;1,07850465493;False;neither;1,1;-0,15;1;neither;0,375999927521
MCB93w;2017-06-01-13-34-30;6;6;1,07093326265;True;left;1,9;-0,15;-1;neither;1,24799990654
MCB93w;2017-06-01-13-34-30;6;7;1,08444802196;False;left;1,3;0,15;-1;left;0,515000104904
MCB93w;2017-06-01-13-34-30;6;8;1,03990651534;True;right;1,7;-0,15;1;neither;0,522000074387
MCB93w;2017-06-01-13-34-30;6;9;1,0626384891;False;both;1,7;0,15;-1;both;1,03800010681
MCB93w;2017-06-01-13-34-30;6;10;1,1995142936;True;left;1,5;-0,15;1;both;0,445999860764
MCB93w;2017-06-01-13-34-30;6;11;1,19358811003;False;right;1,7;0,0;-1;neither;0,612999916077
MCB93w;2017-06-01-13-34-30;6;12;0,833040156026;True;both;1,3;0,15;-1;neither;0,343999862671
MCB93w;2017-06-01-13-34-30;6;13;1,03004154759;False;left;1,9;0,15;1;neither;0,398999929428
MCB93w;2017-06-01-13-34-30;6;14;0,856188149284;True;right;1,9;0,15;-1;right;0,800999879837
MCB93w;2017-06-01-13-34-30;6;15;0,953581592962;False;neither;1,7;0,15;-1;neither;0,524999856949
MCB93w;2017-06-01-13-34-30;6;16;0,86506212337;True;right;1,5;-0,15;1;neither;1,01900005341
MCB93w;2017-06-01-13-34-30;6;17;1,00730377549;False;neither;1,3;-0,15;1;neither;0,421999931335
MCB93w;2017-06-01-13-34-30;6;18;0,983373620377;True;both;1,3;-0,15;1;both;2,007999897
MCB93w;2017-06-01-13-34-30;6;19;1,04861130535;False;left;1,7;0,15;1;left;0,411000013351
MCB93w;2017-06-01-13-34-30;6;20;0,878439768317;True;right;1,1;0,15;1;neither;0,34299993515
MCB93w;2017-06-01-13-34-30;6;21;0,906104695124;False;both;1,7;0,0;1;both;0,4359998703
MCB93w;2017-06-01-13-34-30;6;22;1,12843805133;True;right;1,5;0,15;1;right;1,18499994278
MCB93w;2017-06-01-13-34-30;6;23;0,92089681622;False;left;1,1;-0,15;1;neither;0,499000072479
MCB93w;2017-06-01-13-34-30;6;24;1,12440582971;True;right;1,7;0,15;1;both;0,491999864578
MCB93w;2017-06-01-13-34-30;6;25;1,16387097483;False;right;1,5;-0,15;1;neither;0,708999872208
MCB93w;2017-06-01-13-34-30;6;26;0,819995135718;True;left;1,3;-0,15;-1;both;0,377999782562
MCB93w;2017-06-01-13-34-30;6;27;0,860676618044;False;left;1,1;-0,15;1;left;0,322999954224
MCB93w;2017-06-01-13-34-30;6;28;0,938643896664;True;right;1,5;0,15;-1;both;0,400000095367
MCB93w;2017-06-01-13-34-30;6;29;1,16109952724;False;right;1,3;0,0;-1;neither;0,539999961853
MCB93w;2017-06-01-13-34-30;6;30;0,802547563017;True;both;1,5;-0,15;-1;right;0,354000091553
MCB93w;2017-06-01-13-34-30;6;31;1,11428901328;False;neither;1,5;0,0;-1;neither;0,727999925613
MCB93w;2017-06-01-13-34-30;6;32;1,13318083151;True;left;1,9;-0,15;-1;both;0,411000013351
MCB93w;2017-06-01-13-34-30;6;33;0,964282377342;False;both;1,9;-0,15;-1;both;0,490000009537
MCB93w;2017-06-01-13-34-30;6;34;0,974789043047;True;left;1,1;0,0;-1;left;0,311000108719
MCB93w;2017-06-01-13-34-30;6;35;0,993258022375;False;right;1,1;-0,15;-1;both;0,344000101089
MCB93w;2017-06-01-13-34-30;6;36;0,885397109224;True;right;1,7;0,0;-1;right;0,56200003624
MCB93w;2017-06-01-13-34-30;6;37;1,00983777798;False;both;1,1;0,15;1;neither;0,398999929428
MCB93w;2017-06-01-13-34-30;6;38;1,04567206651;True;left;1,3;0,0;1;both;0,376000165939
MCB93w;2017-06-01-13-34-30;6;39;0,858255066677;False;left;1,5;0,15;-1;left;0,328000068665
MCB93w;2017-06-01-13-34-30;6;40;1,19461248889;True;both;1,9;0,0;-1;neither;0,346999883652
MCB93w;2017-06-01-13-34-30;6;41;0,848088784337;False;right;1,5;0,0;-1;right;1,27100014687
MCB93w;2017-06-01-13-34-30;6;42;0,897921644473;True;neither;1,9;-0,15;-1;neither;1,08800005913
MCB93w;2017-06-01-13-34-30;6;43;1,14230665736;False;neither;1,3;0,0;1;neither;1,4240000248
MCB93w;2017-06-01-13-34-30;6;44;1,05319164396;True;left;1,9;0,0;1;both;0,398999929428
MCB93w;2017-06-01-13-34-30;6;45;0,815076555676;False;neither;1,7;-0,15;-1;neither;0,62700009346
MCB93w;2017-06-01-13-34-30;7;1;1,07658737151;True;right;1,1;0,15;-1;right;0,394999980927
MCB93w;2017-06-01-13-34-30;7;2;0,901790976693;False;right;1,1;0,15;-1;neither;0,577000141144
MCB93w;2017-06-01-13-34-30;7;3;0,842232724968;True;right;1,9;0,0;-1;both;0,309000015259
MCB93w;2017-06-01-13-34-30;7;4;1,12380798317;False;left;1,5;-0,15;1;both;0,328000068665
MCB93w;2017-06-01-13-34-30;7;5;1,18837425848;True;right;1,3;0,15;-1;right;0,253000020981
MCB93w;2017-06-01-13-34-30;7;6;1,0227787142;False;both;1,1;-0,15;-1;both;0,326999902725
MCB93w;2017-06-01-13-34-30;7;7;1,105463847;True;right;1,1;0,0;-1;right;0,344000101089
MCB93w;2017-06-01-13-34-30;7;8;1,05672872616;False;neither;1,7;0,0;-1;neither;0,486000061035
MCB93w;2017-06-01-13-34-30;7;9;0,895504615288;True;left;1,5;0,15;-1;left;0,292999982834
MCB93w;2017-06-01-13-34-30;7;10;1,14591825778;False;left;1,3;0,0;1;neither;0,3109998703
MCB93w;2017-06-01-13-34-30;7;11;1,16075128866;True;both;1,9;-0,15;-1;both;0,931999921799
MCB93w;2017-06-01-13-34-30;7;12;1,00031114323;False;left;1,3;0,15;-1;left;0,448999881744
MCB93w;2017-06-01-13-34-30;7;13;0,977823247667;True;both;1,3;0,15;-1;both;0,341000080109
MCB93w;2017-06-01-13-34-30;7;14;0,905566676323;False;right;1,9;0,0;1;right;0,426000118256
MCB93w;2017-06-01-13-34-30;7;15;0,885382629001;True;left;1,3;-0,15;1;left;0,410000085831
MCB93w;2017-06-01-13-34-30;7;16;0,81172969481;False;left;1,1;0,0;-1;both;0,306999921799
MCB93w;2017-06-01-13-34-30;7;17;0,882964036532;True;both;1,5;-0,15;1;both;0,341000080109
MCB93w;2017-06-01-13-34-30;7;18;0,841118327249;False;right;1,9;0,15;1;right;0,464999914169
MCB93w;2017-06-01-13-34-30;7;19;1,19217356935;True;left;1,7;-0,15;-1;both;0,342000007629
MCB93w;2017-06-01-13-34-30;7;20;1,09010654341;False;left;1,5;0,0;-1;left;0,309000015259
MCB93w;2017-06-01-13-34-30;7;21;0,853680618789;True;left;1,3;-0,15;-1;both;1,28999996185
MCB93w;2017-06-01-13-34-30;7;22;0,903027565268;False;left;1,9;0,15;1;neither;1,73399996758
MCB93w;2017-06-01-13-34-30;7;23;1,16445847722;True;left;1,7;0,15;-1;neither;1,742000103
MCB93w;2017-06-01-13-34-30;7;24;1,14854808507;False;neither;1,1;-0,15;1;both;1,06199979782
MCB93w;2017-06-01-13-34-30;7;25;0,904778798901;True;neither;1,9;0,15;1;neither;0,420000076294
MCB93w;2017-06-01-13-34-30;7;26;1,07193050941;False;right;1,7;0,15;-1;right;0,308000087738
MCB93w;2017-06-01-13-34-30;7;27;1,16624106081;True;both;1,3;0,0;1;both;0,928000211716
MCB93w;2017-06-01-13-34-30;7;28;0,93536639609;False;right;1,7;-0,15;1;neither;0,443000078201
MCB93w;2017-06-01-13-34-30;7;29;1,07195897739;True;left;1,9;-0,15;-1;both;0,751000165939
MCB93w;2017-06-01-13-34-30;7;30;0,860744549843;False;right;1,3;0,0;1;right;0,451000213623
MCB93w;2017-06-01-13-34-30;7;31;0,931984085642;True;right;1,1;-0,15;-1;neither;0,355999946594
MCB93w;2017-06-01-13-34-30;7;32;1,18091236647;False;right;1,3;0,15;1;neither;0,384999990463
MCB93w;2017-06-01-13-34-30;7;33;0,966375967171;True;neither;1,1;0,0;1;neither;0,398999929428
MCB93w;2017-06-01-13-34-30;7;34;0,859799814553;False;neither;1,7;0,15;-1;neither;0,414999961853
MCB93w;2017-06-01-13-34-30;7;35;1,16226535652;True;left;1,1;0,0;-1;left;1,32399988174
MCB93w;2017-06-01-13-34-30;7;36;0,884249933602;False;both;1,9;0,0;1;both;1,97799992561
MCB93w;2017-06-01-13-34-30;7;37;1,08103635295;True;neither;1,9;0,0;1;neither;0,800999879837
MCB93w;2017-06-01-13-34-30;7;38;1,16838898438;False;right;1,3;0,0;-1;neither;0,399999856949
MCB93w;2017-06-01-13-34-30;7;39;1,03479582099;True;right;1,9;-0,15;1;both;0,542000055313
MCB93w;2017-06-01-13-34-30;7;40;1,06785570131;False;both;1,5;0,0;1;both;0,416999816895
MCB93w;2017-06-01-13-34-30;7;41;0,872547267849;True;right;1,5;-0,15;1;neither;0,31500005722
MCB93w;2017-06-01-13-34-30;7;42;0,871512219534;False;right;1,9;0,15;1;both;0,375
MCB93w;2017-06-01-13-34-30;7;43;0,82528335337;True;right;1,5;0,0;-1;right;0,251000165939
MCB93w;2017-06-01-13-34-30;7;44;1,09874312988;False;right;1,3;-0,15;1;neither;0,757999897003
MCB93w;2017-06-01-13-34-30;7;45;0,94335615902;True;right;1,7;0,0;-1;right;0,384999990463
MCB93w;2017-06-01-13-34-30;8;1;1,16757339348;False;right;1,1;0,15;-1;right;0,432999849319
MCB93w;2017-06-01-13-34-30;8;2;0,813359908947;True;right;1,1;0,15;1;right;0,34600019455
MCB93w;2017-06-01-13-34-30;8;3;0,923246481943;False;right;1,9;0,0;1;right;0,618000030518
MCB93w;2017-06-01-13-34-30;8;4;1,07107803201;True;left;1,5;-0,15;-1;left;0,317000150681
MCB93w;2017-06-01-13-34-30;8;5;1,01613928558;False;right;1,3;0,15;-1;right;0,286000013351
MCB93w;2017-06-01-13-34-30;8;6;0,938666285889;True;both;1,1;-0,15;-1;both;0,368000030518
MCB93w;2017-06-01-13-34-30;8;7;0,976632593865;False;right;1,1;0,0;1;right;0,319999933243
MCB93w;2017-06-01-13-34-30;8;8;1,12636842618;True;neither;1,7;0,0;1;neither;0,433000087738
MCB93w;2017-06-01-13-34-30;8;9;1,11612777075;False;left;1,5;0,15;1;neither;0,468000173569
MCB93w;2017-06-01-13-34-30;8;10;1,04031349511;True;left;1,3;0,0;1;left;0,445000171661
MCB93w;2017-06-01-13-34-30;8;11;1,14512415099;False;both;1,9;-0,15;1;both;0,360999822617
MCB93w;2017-06-01-13-34-30;8;12;0,813682195235;True;left;1,3;0,15;-1;left;0,346999883652
MCB93w;2017-06-01-13-34-30;8;13;0,883774848913;False;both;1,3;0,15;1;neither;0,352999925613
MCB93w;2017-06-01-13-34-30;8;14;1,19851016035;True;right;1,9;0,0;1;both;0,411000013351
MCB93w;2017-06-01-13-34-30;8;15;0,821160935419;False;left;1,3;-0,15;1;neither;1,86100006104
MCB93w;2017-06-01-13-34-30;8;16;0,944050981854;True;left;1,1;0,0;1;both;0,25
MCB93w;2017-06-01-13-34-30;8;17;1,03572501762;False;both;1,5;-0,15;-1;both;0,394000053406
MCB93w;2017-06-01-13-34-30;8;18;0,842667120609;True;right;1,9;0,15;-1;neither;1,25200009346
MCB93w;2017-06-01-13-34-30;8;19;0,87405883267;False;left;1,7;-0,15;-1;neither;0,356999874115
MCB93w;2017-06-01-13-34-30;8;20;1,10086001656;True;left;1,5;0,0;1;both;0,491999864578
MCB93w;2017-06-01-13-34-30;8;21;0,80443937897;False;left;1,3;-0,15;1;both;1,70199990273
MCB93w;2017-06-01-13-34-30;8;22;0,986970932549;True;left;1,9;0,15;-1;neither;1,24799990654
MCB93w;2017-06-01-13-34-30;8;23;0,988851783669;False;left;1,7;0,15;-1;neither;0,513999938965
MCB93w;2017-06-01-13-34-30;8;24;0,814866014927;True;neither;1,1;-0,15;-1;neither;0,576999902725
MCB93w;2017-06-01-13-34-30;8;25;1,05592132607;False;neither;1,9;0,15;1;neither;0,392999887466
MCB93w;2017-06-01-13-34-30;8;26;1,03433891838;True;right;1,7;0,15;-1;both;1,8259999752
MCB93w;2017-06-01-13-34-30;8;27;1,12510938182;False;both;1,3;0,0;1;neither;1,30099987984
MCB93w;2017-06-01-13-34-30;8;28;1,03321813393;True;right;1,7;-0,15;-1;neither;0,94000005722
MCB93w;2017-06-01-13-34-30;8;29;1,15996885108;False;left;1,9;-0,15;-1;neither;0,475999832153
MCB93w;2017-06-01-13-34-30;8;30;0,929513043679;True;right;1,3;0,0;-1;right;0,319999933243
MCB93w;2017-06-01-13-34-30;8;31;0,873365789665;False;right;1,1;-0,15;-1;neither;0,361000061035
MCB93w;2017-06-01-13-34-30;8;32;0,971696631051;True;right;1,3;0,15;1;right;0,258000135422
MCB93w;2017-06-01-13-34-30;8;33;0,980709176206;False;neither;1,1;0,0;1;neither;0,924000024796
MCB93w;2017-06-01-13-34-30;8;34;1,19500562068;True;neither;1,7;0,15;-1;neither;0,526999950409
MCB93w;2017-06-01-13-34-30;8;35;1,07997068386;False;left;1,1;0,0;-1;left;0,253999948502
MCB93w;2017-06-01-13-34-30;8;36;0,806228296982;True;both;1,9;0,0;-1;both;0,408999919891
MCB93w;2017-06-01-13-34-30;8;37;0,886148586783;False;neither;1,9;0,0;1;neither;0,399999856949
MCB93w;2017-06-01-13-34-30;8;38;1,09823665753;True;right;1,3;0,0;-1;neither;0,391999959946
MCB93w;2017-06-01-13-34-30;8;39;1,16189929107;False;right;1,9;-0,15;-1;neither;0,507999897003
MCB93w;2017-06-01-13-34-30;8;40;0,984678226077;True;both;1,5;0,0;-1;neither;0,655000209808
MCB93w;2017-06-01-13-34-30;8;41;1,04529148533;False;right;1,5;-0,15;-1;both;0,325999975204
MCB93w;2017-06-01-13-34-30;8;42;1,08881427815;True;right;1,9;0,15;1;right;0,80999994278
MCB93w;2017-06-01-13-34-30;8;43;1,0143630707;False;right;1,5;0,0;-1;both;0,334000110626
MCB93w;2017-06-01-13-34-30;8;44;0,954807187237;True;right;1,3;-0,15;1;neither;0,260999917984
MCB93w;2017-06-01-13-34-30;8;45;0,82445635189;False;right;1,7;0,0;1;both;0,519999980927
MCB93w;2017-06-01-13-34-30;9;1;0,93073498627;True;left;1,1;-0,15;-1;both;0,610000133514
MCB93w;2017-06-01-13-34-30;9;2;1,09823471977;False;neither;1,1;0,15;-1;neither;0,922000169754
MCB93w;2017-06-01-13-34-30;9;3;0,855804682811;True;left;1,5;-0,15;1;both;0,329999923706
MCB93w;2017-06-01-13-34-30;9;4;0,929886904525;False;both;1,1;-0,15;-1;both;0,3109998703
MCB93w;2017-06-01-13-34-30;9;5;0,991726822028;True;left;1,1;-0,15;1;neither;0,34099984169
MCB93w;2017-06-01-13-34-30;9;6;1,07649694866;False;right;1,1;-0,15;-1;neither;0,421000003815
MCB93w;2017-06-01-13-34-30;9;7;1,1234532473;True;neither;1,3;-0,15;1;neither;0,483000040054
MCB93w;2017-06-01-13-34-30;9;8;0,948265155169;False;both;1,9;0,15;1;both;0,343999862671
MCB93w;2017-06-01-13-34-30;9;9;1,06638657233;True;left;1,7;-0,15;-1;left;0,340000152588
MCB93w;2017-06-01-13-34-30;9;10;1,10748898331;False;neither;1,7;-0,15;1;neither;1,10100007057
MCB93w;2017-06-01-13-34-30;9;11;0,871590105838;True;right;1,5;-0,15;1;neither;0,731999874115
MCB93w;2017-06-01-13-34-30;9;12;1,14235957637;False;right;1,9;0,0;-1;both;0,333000183105
MCB93w;2017-06-01-13-34-30;9;13;0,993401014171;True;right;1,1;0,15;-1;both;1,15000009537
MCB93w;2017-06-01-13-34-30;9;14;1,10334033912;False;left;1,3;0,15;1;left;0,304999828339
MCB93w;2017-06-01-13-34-30;9;15;0,817739091586;True;both;1,9;-0,15;-1;neither;0,375
MCB93w;2017-06-01-13-34-30;9;16;1,1472849374;False;both;1,7;0,15;-1;both;0,282999992371
MCB93w;2017-06-01-13-34-30;9;17;1,14749756134;True;both;1,3;0,0;1;both;0,172999858856
MCB93w;2017-06-01-13-34-30;9;18;1,0950556901;False;left;1,3;0,0;1;left;0,31299996376
MCB93w;2017-06-01-13-34-30;9;19;1,06599182459;True;both;1,1;0,0;1;both;0,299999952316
MCB93w;2017-06-01-13-34-30;9;20;1,18152139579;False;left;1,9;0,0;-1;left;0,421000003815
MCB93w;2017-06-01-13-34-30;9;21;0,816422466276;True;neither;1,9;0,0;-1;neither;0,475000143051
MCB93w;2017-06-01-13-34-30;9;22;0,960618081654;False;left;1,9;0,15;1;neither;0,427999973297
MCB93w;2017-06-01-13-34-30;9;23;1,09133840168;True;left;1,3;-0,15;-1;neither;0,319999933243
MCB93w;2017-06-01-13-34-30;9;24;0,847100897754;False;right;1,3;0,0;-1;right;0,348999977112
MCB93w;2017-06-01-13-34-30;9;25;0,897361684833;True;both;1,5;0,15;1;both;0,384000062943
MCB93w;2017-06-01-13-34-30;9;26;0,892925847654;False;neither;1,5;-0,15;-1;neither;0,365000009537
MCB93w;2017-06-01-13-34-30;9;27;1,18459872551;True;left;1,1;0,15;1;neither;0,438999891281
MCB93w;2017-06-01-13-34-30;9;28;0,814985804581;False;both;1,5;0,0;1;both;0,343000173569
MCB93w;2017-06-01-13-34-30;9;29;1,112714447;True;neither;1,5;0,15;-1;neither;0,885999917984
MCB93w;2017-06-01-13-34-30;9;30;0,895522348167;False;right;1,3;-0,15;-1;neither;0,340000152588
MCB93w;2017-06-01-13-34-30;9;31;0,985264010608;True;right;1,5;0,15;1;neither;0,378000020981
MCB93w;2017-06-01-13-34-30;9;32;0,998781461438;False;right;1,5;0,15;1;right;0,289999961853
MCB93w;2017-06-01-13-34-30;9;33;1,1483974259;True;neither;1,9;-0,15;-1;neither;0,625
MCB93w;2017-06-01-13-34-30;9;34;0,870314341634;False;left;1,1;0,0;1;left;0,314999818802
MCB93w;2017-06-01-13-34-30;9;35;0,907361777396;True;neither;1,9;0,15;-1;neither;0,465000152588
MCB93w;2017-06-01-13-34-30;9;36;1,11970994346;False;right;1,3;0,15;-1;neither;0,353000164032
MCB93w;2017-06-01-13-34-30;9;37;0,943034112694;True;right;1,3;-0,15;1;both;0,352999925613
MCB93w;2017-06-01-13-34-30;9;38;1,11427073448;False;right;1,1;0,15;1;right;0,253999948502
MCB93w;2017-06-01-13-34-30;9;39;1,08742355657;True;left;1,7;0,0;1;left;0,361999988556
MCB93w;2017-06-01-13-34-30;9;40;0,883337679651;False;left;1,3;0,15;1;neither;0,365000009537
MCB93w;2017-06-01-13-34-30;9;41;1,00851025079;True;left;1,7;-0,15;1;neither;0,371000051498
MCB93w;2017-06-01-13-34-30;9;42;1,0829342742;False;neither;1,3;0,0;1;neither;0,632999897003
MCB93w;2017-06-01-13-34-30;9;43;0,935179973553;True;left;1,3;0,0;1;left;0,299999952316
MCB93w;2017-06-01-13-34-30;9;44;0,910851531053;False;right;1,3;0,15;-1;both;0,396000146866
MCB93w;2017-06-01-13-34-30;9;45;1,12811478729;True;right;1,9;-0,15;-1;neither;0,497000217438
MCB93w;2017-06-01-13-34-30;10;1;0,914038264377;False;left;1,1;-0,15;1;both;0,480999946594
MCB93w;2017-06-01-13-34-30;10;2;1,0331087644;True;neither;1,1;0,15;-1;neither;0,390999794006
MCB93w;2017-06-01-13-34-30;10;3;1,03306919413;False;left;1,5;-0,15;1;both;0,473000049591
MCB93w;2017-06-01-13-34-30;10;4;1,07133540007;True;both;1,1;-0,15;-1;both;0,316999912262
MCB93w;2017-06-01-13-34-30;10;5;0,845087313667;False;left;1,1;-0,15;1;left;0,0
MCB93w;2017-06-01-13-34-30;10;6;1,08605916011;True;right;1,1;-0,15;1;both;0,298000097275
MCB93w;2017-06-01-13-34-30;10;7;1,05560144905;False;neither;1,3;-0,15;1;neither;0,448000192642
MCB93w;2017-06-01-13-34-30;10;8;0,930768437413;True;both;1,9;0,15;-1;both;0,807999849319
MCB93w;2017-06-01-13-34-30;10;9;0,957409889696;False;left;1,7;-0,15;-1;both;0,573999881744
MCB93w;2017-06-01-13-34-30;10;10;1,13996553202;True;neither;1,7;-0,15;1;neither;1,3029999733
MCB93w;2017-06-01-13-34-30;10;11;1,04014041359;False;right;1,5;-0,15;1;both;0,388000011444
MCB93w;2017-06-01-13-34-30;10;12;0,869023262671;True;right;1,9;0,0;-1;right;2,382999897
MCB93w;2017-06-01-13-34-30;10;13;0,998051040795;False;right;1,1;0,15;1;neither;0,354000091553
MCB93w;2017-06-01-13-34-30;10;14;0,952936166482;True;left;1,3;0,15;-1;neither;0,359000205994
MCB93w;2017-06-01-13-34-30;10;15;1,07527372188;False;both;1,9;-0,15;1;both;0,519999980927
MCB93w;2017-06-01-13-34-30;10;16;0,826183624172;True;both;1,7;0,15;-1;both;0,480000019073
MCB93w;2017-06-01-13-34-30;10;17;0,82315584503;False;both;1,3;0,0;-1;both;0,367000102997
MCB93w;2017-06-01-13-34-30;10;18;1,08529323032;True;left;1,3;0,0;-1;both;0,339999914169
MCB93w;2017-06-01-13-34-30;10;19;0,826032128802;False;both;1,1;0,0;1;both;0,436000108719
MCB93w;2017-06-01-13-34-30;10;20;0,901164729316;True;left;1,9;0,0;-1;both;0,424999952316
MCB93w;2017-06-01-13-34-30;10;21;1,12403706467;False;neither;1,9;0,0;1;neither;0,467000007629
MCB93w;2017-06-01-13-34-30;10;22;1,19484446858;True;left;1,9;0,15;1;left;0,391999959946
MCB93w;2017-06-01-13-34-30;10;23;0,915451366968;False;left;1,3;-0,15;1;left;0,0
MCB93w;2017-06-01-13-34-30;10;24;0,837382810352;True;right;1,3;0,0;-1;neither;1,01400017738
MCB93w;2017-06-01-13-34-30;10;25;1,07951886484;False;both;1,5;0,15;1;both;0,605000019073
MCB93w;2017-06-01-13-34-30;10;26;1,16029207427;True;neither;1,5;-0,15;1;neither;0,364000082016
MCB93w;2017-06-01-13-34-30;10;27;1,05185273721;False;left;1,1;0,15;-1;left;0,261000156403
MCB93w;2017-06-01-13-34-30;10;28;0,908486994487;True;both;1,5;0,0;-1;both;0,43499994278
MCB93w;2017-06-01-13-34-30;10;29;1,18201932996;False;neither;1,5;0,15;1;neither;0,351999998093
MCB93w;2017-06-01-13-34-30;10;30;1,05961511146;True;right;1,3;-0,15;-1;right;0,226999998093
MCB93w;2017-06-01-13-34-30;10;31;0,848939493543;False;right;1,5;0,15;-1;neither;0,498000144958
MCB93w;2017-06-01-13-34-30;10;32;1,19302738538;True;right;1,5;0,15;-1;both;0,393000125885
MCB93w;2017-06-01-13-34-30;10;33;1,10739134672;False;neither;1,9;-0,15;1;neither;1,06999993324
MCB93w;2017-06-01-13-34-30;10;34;0,989534462464;True;left;1,1;0,0;-1;left;0,28200006485
MCB93w;2017-06-01-13-34-30;10;35;1,18686762465;False;neither;1,9;0,15;-1;neither;0,282999992371
MCB93w;2017-06-01-13-34-30;10;36;1,12194299694;True;right;1,3;0,15;1;right;0,0
MCB93w;2017-06-01-13-34-30;10;37;1,18998271519;False;right;1,3;-0,15;-1;both;0,0
MCB93w;2017-06-01-13-34-30;10;38;1,06913354835;True;right;1,1;0,15;-1;neither;0,180999994278
MCB93w;2017-06-01-13-34-30;10;39;0,963960822664;False;left;1,7;0,0;1;both;0,0
MCB93w;2017-06-01-13-34-30;10;40;0,858371524175;True;left;1,3;0,15;1;neither;0,40299987793
MCB93w;2017-06-01-13-34-30;10;41;0,952165569314;False;left;1,7;-0,15;1;both;0,0329999923706
MCB93w;2017-06-01-13-34-30;10;42;0,967760286256;True;neither;1,3;0,0;1;neither;0,574000120163
MCB93w;2017-06-01-13-34-30;10;43;1,00196536115;False;left;1,3;0,0;1;both;0,0
MCB93w;2017-06-01-13-34-30;10;44;1,14185173845;True;right;1,3;0,15;-1;neither;0,375999927521
MCB93w;2017-06-01-13-34-30;10;45;0,81472150448;False;right;1,9;-0,15;-1;both;0,0
