Observer;SessionID;Block;Trial;OnsetDelay;Yellow;Switch;SwitchTime;Gap;Direction;Response;RT
NSM89w;2017-06-01-16-01-08;1;1;0,892742371532;True;both;1,3;0,15;-1;right;0,273000001907
NSM89w;2017-06-01-16-01-08;1;2;1,07437326393;False;right;1,9;-0,15;-1;neither;0,0
NSM89w;2017-06-01-16-01-08;1;3;0,982442371007;True;left;1,3;0,0;1;left;0,0
NSM89w;2017-06-01-16-01-08;1;4;1,11346956065;False;neither;1,1;0,0;1;right;0,423000097275
NSM89w;2017-06-01-16-01-08;1;5;0,85663770708;True;left;1,1;0,15;-1;neither;1,07299995422
NSM89w;2017-06-01-16-01-08;1;6;1,11839537489;False;right;1,7;-0,15;-1;right;1,78800010681
NSM89w;2017-06-01-16-01-08;1;7;1,14599127887;True;right;1,9;0,15;-1;right;0,998000144958
NSM89w;2017-06-01-16-01-08;1;8;0,958848457213;False;right;1,1;-0,15;-1;both;0,755000114441
NSM89w;2017-06-01-16-01-08;1;9;1,16720701835;True;both;1,9;-0,15;-1;left;1,81500005722
NSM89w;2017-06-01-16-01-08;1;10;0,9939303849;False;left;1,5;0,0;-1;left;0,000999927520752
NSM89w;2017-06-01-16-01-08;1;11;1,19354789217;True;left;1,3;0,0;1;neither;1,09400010109
NSM89w;2017-06-01-16-01-08;1;12;0,878411986481;False;neither;1,5;0,15;-1;neither;0,634999990463
NSM89w;2017-06-01-16-01-08;1;13;1,12580269818;True;right;1,9;0,0;1;right;0,547000169754
NSM89w;2017-06-01-16-01-08;1;14;0,93926858988;False;left;1,5;0,15;-1;both;0,0
NSM89w;2017-06-01-16-01-08;1;15;1,03395237373;True;right;1,1;-0,15;1;right;0,0
NSM89w;2017-06-01-16-01-08;1;16;0,941226372814;False;both;1,3;0,0;-1;right;0,0
NSM89w;2017-06-01-16-01-08;1;17;0,974014522463;True;left;1,7;0,15;1;both;0,0
NSM89w;2017-06-01-16-01-08;1;18;1,10689937795;False;both;1,1;-0,15;-1;left;0,0
NSM89w;2017-06-01-16-01-08;1;19;0,887115817081;True;both;1,5;-0,15;1;both;0,0
NSM89w;2017-06-01-16-01-08;1;20;1,192814196;False;both;1,5;0,0;-1;both;0,0
NSM89w;2017-06-01-16-01-08;1;21;1,19906664535;True;right;1,3;-0,15;-1;right;0,0
NSM89w;2017-06-01-16-01-08;1;22;1,0936754978;False;right;1,7;0,15;-1;neither;0,0
NSM89w;2017-06-01-16-01-08;1;23;0,967585852429;True;right;1,9;0,0;-1;right;0,0
NSM89w;2017-06-01-16-01-08;1;24;1,09298079309;False;neither;1,5;-0,15;-1;right;0,0
NSM89w;2017-06-01-16-01-08;1;25;0,888539694978;True;neither;1,1;-0,15;1;neither;0,0
NSM89w;2017-06-01-16-01-08;1;26;0,968465338996;False;left;1,7;0,15;-1;neither;0,0
NSM89w;2017-06-01-16-01-08;1;27;0,941007852379;True;right;1,1;0,0;-1;left;0,0
NSM89w;2017-06-01-16-01-08;1;28;0,85011688295;False;both;1,9;0,15;1;right;0,0
NSM89w;2017-06-01-16-01-08;1;29;0,907605259287;True;right;1,7;0,0;-1;left;0,0
NSM89w;2017-06-01-16-01-08;1;30;0,937251090137;False;right;1,3;0,15;1;right;0,0
NSM89w;2017-06-01-16-01-08;1;31;0,969235986409;True;right;1,1;0,15;1;right;0,0
NSM89w;2017-06-01-16-01-08;1;32;0,95138711495;False;right;1,5;0,15;-1;both;0,0
NSM89w;2017-06-01-16-01-08;1;33;0,9767303787;True;right;1,9;-0,15;1;right;0,0
NSM89w;2017-06-01-16-01-08;1;34;0,960627911369;False;both;1,7;0,15;1;right;0,00100016593933
NSM89w;2017-06-01-16-01-08;1;35;0,971086153779;True;neither;1,9;0,15;-1;both;0,0
NSM89w;2017-06-01-16-01-08;1;36;0,882330297711;False;right;1,5;0,15;1;right;0,000999927520752
NSM89w;2017-06-01-16-01-08;1;37;1,11442204938;True;left;1,3;0,15;-1;right;0,0
NSM89w;2017-06-01-16-01-08;1;38;1,16668583549;False;left;1,5;0,0;1;left;0,0
NSM89w;2017-06-01-16-01-08;1;39;1,09249163403;True;neither;1,9;-0,15;1;left;0,00100016593933
NSM89w;2017-06-01-16-01-08;1;40;0,819960617694;False;neither;1,3;0,15;1;neither;0,0
NSM89w;2017-06-01-16-01-08;1;41;0,866930098258;True;neither;1,7;0,0;1;neither;0,0
NSM89w;2017-06-01-16-01-08;1;42;1,19585265337;False;right;1,7;0,15;1;neither;0,0
NSM89w;2017-06-01-16-01-08;1;43;0,840562964558;True;right;1,5;-0,15;1;neither;0,0
NSM89w;2017-06-01-16-01-08;1;44;0,98864870721;False;left;1,9;0,15;-1;right;0,0
NSM89w;2017-06-01-16-01-08;1;45;0,911530866551;True;right;1,5;0,0;1;neither;0,000999927520752
NSM89w;2017-06-01-16-01-08;2;1;0,898318458326;False;both;1,3;0,15;1;left;0,819999933243
NSM89w;2017-06-01-16-01-08;2;2;1,09229413502;True;right;1,9;-0,15;1;neither;1,21099996567
NSM89w;2017-06-01-16-01-08;2;3;0,877384758148;False;left;1,3;0,0;-1;left;1,21300005913
NSM89w;2017-06-01-16-01-08;2;4;1,1401809149;True;neither;1,1;0,0;-1;neither;0,533999919891
NSM89w;2017-06-01-16-01-08;2;5;1,08816892661;False;left;1,1;0,15;1;left;0,43499994278
NSM89w;2017-06-01-16-01-08;2;6;0,871048815337;True;right;1,7;-0,15;-1;neither;1,56599998474
NSM89w;2017-06-01-16-01-08;2;7;0,995017194523;False;right;1,9;0,15;-1;left;1,16499996185
NSM89w;2017-06-01-16-01-08;2;8;0,86514856736;True;right;1,1;-0,15;1;neither;1,24799990654
NSM89w;2017-06-01-16-01-08;2;9;0,826995489785;False;both;1,9;-0,15;-1;both;0,565999984741
NSM89w;2017-06-01-16-01-08;2;10;1,02149104407;True;left;1,5;0,0;1;both;0,454999923706
NSM89w;2017-06-01-16-01-08;2;11;1,06122127922;False;left;1,3;0,0;1;left;0,667999982834
NSM89w;2017-06-01-16-01-08;2;12;1,02584574745;True;neither;1,5;0,15;-1;neither;0,911999940872
NSM89w;2017-06-01-16-01-08;2;13;0,97588620842;False;right;1,9;0,0;-1;neither;0,641000032425
NSM89w;2017-06-01-16-01-08;2;14;1,06097076829;True;left;1,5;0,15;-1;left;1,24099993706
NSM89w;2017-06-01-16-01-08;2;15;1,18476239307;False;right;1,1;-0,15;-1;neither;0,959000110626
NSM89w;2017-06-01-16-01-08;2;16;0,930579475493;True;both;1,3;0,0;1;right;1,10400009155
NSM89w;2017-06-01-16-01-08;2;17;0,84074458402;False;left;1,7;0,15;-1;neither;1,44000005722
NSM89w;2017-06-01-16-01-08;2;18;0,955152994486;True;both;1,1;-0,15;1;both;0,401000022888
NSM89w;2017-06-01-16-01-08;2;19;1,10357514323;False;both;1,5;-0,15;-1;both;0,524999856949
NSM89w;2017-06-01-16-01-08;2;20;1,18644987854;True;both;1,5;0,0;-1;both;0,695000171661
NSM89w;2017-06-01-16-01-08;2;21;0,894164410775;False;right;1,3;-0,15;-1;both;0,996999979019
NSM89w;2017-06-01-16-01-08;2;22;1,09933187692;True;right;1,7;0,15;1;right;0,493000030518
NSM89w;2017-06-01-16-01-08;2;23;1,00482102276;False;right;1,9;0,0;1;right;0,598999977112
NSM89w;2017-06-01-16-01-08;2;24;0,809464155512;True;neither;1,5;-0,15;-1;neither;0,478000164032
NSM89w;2017-06-01-16-01-08;2;25;1,09597713692;False;neither;1,1;-0,15;1;neither;0,427000045776
NSM89w;2017-06-01-16-01-08;2;26;1,13173316466;True;left;1,7;0,15;1;both;0,988999843597
NSM89w;2017-06-01-16-01-08;2;27;1,1701224452;False;right;1,1;0,0;1;left;1,49599981308
NSM89w;2017-06-01-16-01-08;2;28;1,17344424248;True;both;1,9;0,15;1;both;1,72299981117
NSM89w;2017-06-01-16-01-08;2;29;0,901356307138;False;right;1,7;0,0;-1;right;1,59200000763
NSM89w;2017-06-01-16-01-08;2;30;0,945490061998;True;right;1,3;0,15;1;right;0,52999997139
NSM89w;2017-06-01-16-01-08;2;31;0,86593544157;False;right;1,1;0,15;-1;neither;1,06300020218
NSM89w;2017-06-01-16-01-08;2;32;1,19222172603;True;right;1,5;0,15;1;neither;0,821000099182
NSM89w;2017-06-01-16-01-08;2;33;1,12079948549;False;right;1,9;-0,15;-1;left;1,2990000248
NSM89w;2017-06-01-16-01-08;2;34;0,907208915434;True;both;1,7;0,15;-1;left;1,51300001144
NSM89w;2017-06-01-16-01-08;2;35;1,17634167812;False;neither;1,9;0,15;-1;neither;0,582000017166
NSM89w;2017-06-01-16-01-08;2;36;0,958716176991;True;right;1,5;0,15;-1;left;1,1970000267
NSM89w;2017-06-01-16-01-08;2;37;0,909329750546;False;left;1,3;0,15;1;neither;1,69499993324
NSM89w;2017-06-01-16-01-08;2;38;1,16153065104;True;left;1,5;0,0;1;left;0,616999864578
NSM89w;2017-06-01-16-01-08;2;39;1,16364018684;False;neither;1,9;-0,15;-1;neither;1,28099989891
NSM89w;2017-06-01-16-01-08;2;40;1,05308118726;True;neither;1,3;0,15;-1;right;1,05700016022
NSM89w;2017-06-01-16-01-08;2;41;0,809338465377;False;neither;1,7;0,0;-1;neither;1,18000006676
NSM89w;2017-06-01-16-01-08;2;42;1,13779065661;True;right;1,7;0,15;1;neither;1,2990000248
NSM89w;2017-06-01-16-01-08;2;43;1,15278092273;False;right;1,5;-0,15;1;neither;1,95999979973
NSM89w;2017-06-01-16-01-08;2;44;0,914856068115;True;left;1,9;0,15;-1;right;1,89100003242
NSM89w;2017-06-01-16-01-08;2;45;0,835097892195;False;right;1,5;0,0;-1;neither;0,910000085831
NSM89w;2017-06-01-16-01-08;3;1;1,10622098774;True;both;1,3;0,15;1;right;1,68899989128
NSM89w;2017-06-01-16-01-08;3;2;1,02018750675;False;right;1,3;-0,15;-1;left;2,0
NSM89w;2017-06-01-16-01-08;3;3;0,919777638869;True;neither;1,1;0,15;-1;neither;0,790999889374
NSM89w;2017-06-01-16-01-08;3;4;0,844529441551;False;left;1,3;0,0;-1;right;2,22199988365
NSM89w;2017-06-01-16-01-08;3;5;1,11592257364;True;right;1,9;-0,15;1;neither;2,18300008774
NSM89w;2017-06-01-16-01-08;3;6;0,950144797094;False;right;1,9;-0,15;-1;neither;0,856999874115
NSM89w;2017-06-01-16-01-08;3;7;1,03418086002;True;both;1,1;0,15;1;right;0,368999958038
NSM89w;2017-06-01-16-01-08;3;8;0,800760272023;False;both;1,1;-0,15;-1;both;0,479000091553
NSM89w;2017-06-01-16-01-08;3;9;1,03844753269;True;right;1,9;0,15;-1;left;1,48300004005
NSM89w;2017-06-01-16-01-08;3;10;1,16917676293;False;neither;1,7;-0,15;1;neither;1,01600003242
NSM89w;2017-06-01-16-01-08;3;11;0,978875979612;True;right;1,3;0,15;1;right;1,09699988365
NSM89w;2017-06-01-16-01-08;3;12;1,04902755055;False;right;1,3;-0,15;1;right;1,1859998703
NSM89w;2017-06-01-16-01-08;3;13;0,958455146433;True;right;1,7;0,15;1;right;1,06200003624
NSM89w;2017-06-01-16-01-08;3;14;0,858430202349;False;both;1,7;0,0;-1;both;2,60599994659
NSM89w;2017-06-01-16-01-08;3;15;0,955264319146;True;both;1,7;0,15;1;both;0,429000139236
NSM89w;2017-06-01-16-01-08;3;16;0,922852235526;False;right;1,5;0,0;1;right;0,561999797821
NSM89w;2017-06-01-16-01-08;3;17;0,960965055254;True;right;1,5;0,15;1;right;0,919000148773
NSM89w;2017-06-01-16-01-08;3;18;0,949943722697;False;both;1,3;0,0;-1;left;1,97399997711
NSM89w;2017-06-01-16-01-08;3;19;0,846169677129;True;left;1,3;-0,15;1;neither;0,924000024796
NSM89w;2017-06-01-16-01-08;3;20;0,809321771402;False;right;1,5;0,0;1;neither;1,0529999733
NSM89w;2017-06-01-16-01-08;3;21;1,15689333269;True;both;1,5;0,15;-1;both;1,007999897
NSM89w;2017-06-01-16-01-08;3;22;0,817829614395;False;left;1,9;0,0;1;neither;0,825999975204
NSM89w;2017-06-01-16-01-08;3;23;1,00211233512;True;left;1,1;0,0;-1;neither;0,552999973297
NSM89w;2017-06-01-16-01-08;3;24;0,993970309288;False;both;1,7;-0,15;1;both;0,660000085831
NSM89w;2017-06-01-16-01-08;3;25;1,18922015222;True;left;1,3;0,15;-1;neither;1,10199999809
NSM89w;2017-06-01-16-01-08;3;26;1,16401788919;False;neither;1,1;-0,15;1;neither;0,386000156403
NSM89w;2017-06-01-16-01-08;3;27;1,00057381364;True;neither;1,5;-0,15;1;neither;0,453999996185
NSM89w;2017-06-01-16-01-08;3;28;1,1494475481;False;right;1,5;-0,15;1;neither;1,26099991798
NSM89w;2017-06-01-16-01-08;3;29;0,858643180447;True;neither;1,9;0,15;-1;neither;0,72200012207
NSM89w;2017-06-01-16-01-08;3;30;0,84956654971;False;left;1,3;0,15;-1;right;0,632999897003
NSM89w;2017-06-01-16-01-08;3;31;0,915015170639;True;right;1,3;0,15;1;neither;0,873999834061
NSM89w;2017-06-01-16-01-08;3;32;1,19116532426;False;neither;1,7;0,15;1;left;0,81200003624
NSM89w;2017-06-01-16-01-08;3;33;1,16403366277;True;right;1,1;0,0;-1;neither;0,56299996376
NSM89w;2017-06-01-16-01-08;3;34;1,13159464055;False;left;1,9;0,15;-1;neither;0,569000005722
NSM89w;2017-06-01-16-01-08;3;35;1,0786322495;True;neither;1,3;-0,15;-1;neither;0,485000133514
NSM89w;2017-06-01-16-01-08;3;36;1,06870837685;False;right;1,7;-0,15;1;neither;0,900000095367
NSM89w;2017-06-01-16-01-08;3;37;0,838184444537;True;left;1,9;-0,15;-1;both;0,591000080109
NSM89w;2017-06-01-16-01-08;3;38;1,07641407528;False;left;1,5;-0,15;-1;both;0,654000043869
NSM89w;2017-06-01-16-01-08;3;39;0,825760664965;True;left;1,7;0,0;1;both;1,67899990082
NSM89w;2017-06-01-16-01-08;3;40;0,913574351821;False;right;1,1;-0,15;1;both;0,910000085831
NSM89w;2017-06-01-16-01-08;3;41;1,03224991405;True;right;1,1;0,15;-1;right;0,93499994278
NSM89w;2017-06-01-16-01-08;3;42;1,18816761539;False;left;1,3;0,0;-1;neither;0,759999990463
NSM89w;2017-06-01-16-01-08;3;43;1,09246370911;True;both;1,9;0,0;1;both;0,532999992371
NSM89w;2017-06-01-16-01-08;3;44;0,98378708809;False;right;1,9;0,15;-1;neither;0,963000059128
NSM89w;2017-06-01-16-01-08;3;45;0,955737832752;True;right;1,7;0,0;-1;right;0,714999914169
NSM89w;2017-06-01-16-01-08;4;1;1,00831555542;False;both;1,3;0,15;1;both;1,04299998283
NSM89w;2017-06-01-16-01-08;4;2;1,1432455213;True;right;1,3;-0,15;1;right;0,389000177383
NSM89w;2017-06-01-16-01-08;4;3;0,993749141097;False;neither;1,1;0,15;1;neither;0,473000049591
NSM89w;2017-06-01-16-01-08;4;4;0,906333666459;True;left;1,3;0,0;-1;neither;0,99599981308
NSM89w;2017-06-01-16-01-08;4;5;1,04337114674;False;right;1,9;-0,15;1;neither;1,26300001144
NSM89w;2017-06-01-16-01-08;4;6;1,06755477661;True;right;1,9;-0,15;-1;right;0,457000017166
NSM89w;2017-06-01-16-01-08;4;7;1,15026389633;False;both;1,1;0,15;1;both;0,371999979019
NSM89w;2017-06-01-16-01-08;4;8;1,08338883947;True;both;1,1;-0,15;1;both;0,486000061035
NSM89w;2017-06-01-16-01-08;4;9;0,928490091099;False;right;1,9;0,15;1;right;0,367000102997
NSM89w;2017-06-01-16-01-08;4;10;1,18420838546;True;neither;1,7;-0,15;1;neither;1,16700005531
NSM89w;2017-06-01-16-01-08;4;11;1,08597254162;False;right;1,3;0,15;1;right;0,663000106812
NSM89w;2017-06-01-16-01-08;4;12;1,18305256349;True;right;1,3;-0,15;-1;both;0,356999874115
NSM89w;2017-06-01-16-01-08;4;13;1,19582291144;False;right;1,7;0,15;1;right;0,809000015259
NSM89w;2017-06-01-16-01-08;4;14;0,871990496701;True;both;1,7;0,0;-1;both;0,788000106812
NSM89w;2017-06-01-16-01-08;4;15;1,19421414674;False;both;1,7;0,15;-1;left;0,485999822617
NSM89w;2017-06-01-16-01-08;4;16;1,01870303372;True;right;1,5;0,0;-1;right;0,328999996185
NSM89w;2017-06-01-16-01-08;4;17;1,1427526269;False;right;1,5;0,15;-1;neither;0,469000101089
NSM89w;2017-06-01-16-01-08;4;18;0,857680134847;True;both;1,3;0,0;1;both;0,34500002861
NSM89w;2017-06-01-16-01-08;4;19;0,926665195178;False;left;1,3;-0,15;1;left;0,37299990654
NSM89w;2017-06-01-16-01-08;4;20;0,814693146886;True;right;1,5;0,0;1;right;0,374000072479
NSM89w;2017-06-01-16-01-08;4;21;0,966930614114;False;both;1,5;0,15;1;both;0,366000175476
NSM89w;2017-06-01-16-01-08;4;22;0,874323807772;True;left;1,9;0,0;1;both;1,02200007439
NSM89w;2017-06-01-16-01-08;4;23;0,804714135415;False;left;1,1;0,0;-1;left;1,23900008202
NSM89w;2017-06-01-16-01-08;4;24;1,18228062982;True;both;1,7;-0,15;-1;both;2,13400006294
NSM89w;2017-06-01-16-01-08;4;25;1,04442800225;False;left;1,3;0,15;1;neither;0,517999887466
NSM89w;2017-06-01-16-01-08;4;26;0,823115759432;True;neither;1,1;-0,15;1;neither;0,631000041962
NSM89w;2017-06-01-16-01-08;4;27;0,95650487439;False;neither;1,5;-0,15;-1;neither;1,10800004005
NSM89w;2017-06-01-16-01-08;4;28;1,00789749197;True;right;1,5;-0,15;-1;both;0,659999847412
NSM89w;2017-06-01-16-01-08;4;29;0,803278338419;False;neither;1,9;0,15;1;neither;0,769000053406
NSM89w;2017-06-01-16-01-08;4;30;0,814331055673;True;left;1,3;0,15;-1;left;1,81299996376
NSM89w;2017-06-01-16-01-08;4;31;1,10111598493;False;right;1,3;0,15;-1;right;0,352999925613
NSM89w;2017-06-01-16-01-08;4;32;1,00580072797;True;neither;1,7;0,15;1;neither;0,595999956131
NSM89w;2017-06-01-16-01-08;4;33;1,108192339;False;right;1,1;0,0;-1;right;0,325000047684
NSM89w;2017-06-01-16-01-08;4;34;0,805810070315;True;left;1,9;0,15;1;both;0,641999959946
NSM89w;2017-06-01-16-01-08;4;35;0,910929506457;False;neither;1,3;-0,15;1;right;0,973999977112
NSM89w;2017-06-01-16-01-08;4;36;0,87833254968;True;right;1,7;-0,15;1;right;0,508999824524
NSM89w;2017-06-01-16-01-08;4;37;0,894053385122;False;left;1,9;-0,15;-1;left;0,896999835968
NSM89w;2017-06-01-16-01-08;4;38;1,14681185717;True;left;1,5;-0,15;1;both;0,405999898911
NSM89w;2017-06-01-16-01-08;4;39;1,12417640189;False;left;1,7;0,0;1;both;0,340000152588
NSM89w;2017-06-01-16-01-08;4;40;1,11320704326;True;right;1,1;-0,15;1;right;0,40499997139
NSM89w;2017-06-01-16-01-08;4;41;1,18645942801;False;right;1,1;0,15;1;right;0,309000015259
NSM89w;2017-06-01-16-01-08;4;42;1,01033710233;True;left;1,3;0,0;1;left;0,341000080109
NSM89w;2017-06-01-16-01-08;4;43;1,15459993184;False;both;1,9;0,0;-1;both;0,710999965668
NSM89w;2017-06-01-16-01-08;4;44;0,895635744923;True;right;1,9;0,15;1;right;0,364000082016
NSM89w;2017-06-01-16-01-08;4;45;1,18839239803;False;right;1,7;0,0;1;both;1,63800001144
NSM89w;2017-06-01-16-01-08;5;1;0,909407063359;True;left;1,5;-0,15;-1;both;0,582000017166
NSM89w;2017-06-01-16-01-08;5;2;0,837216339091;False;right;1,7;0,15;1;right;0,381999969482
NSM89w;2017-06-01-16-01-08;5;3;1,15999929192;True;left;1,1;-0,15;-1;both;0,379999876022
NSM89w;2017-06-01-16-01-08;5;4;0,82603715754;False;right;1,9;0,15;1;neither;0,954999923706
NSM89w;2017-06-01-16-01-08;5;5;1,07694759778;True;right;1,5;0,15;1;right;0,302000045776
NSM89w;2017-06-01-16-01-08;5;6;0,850924291484;False;neither;1,3;0,0;-1;right;0,764999866486
NSM89w;2017-06-01-16-01-08;5;7;1,13359353452;True;left;1,7;0,15;1;both;0,414000034332
NSM89w;2017-06-01-16-01-08;5;8;0,825295882565;False;neither;1,3;0,15;-1;right;0,651000022888
NSM89w;2017-06-01-16-01-08;5;9;1,15894009523;True;neither;1,1;0,15;1;neither;0,950000047684
NSM89w;2017-06-01-16-01-08;5;10;1,11513157472;False;left;1,9;0,0;-1;neither;0,896999835968
NSM89w;2017-06-01-16-01-08;5;11;0,837993278598;True;right;1,3;-0,15;1;right;0,345999956131
NSM89w;2017-06-01-16-01-08;5;12;1,11019553973;False;neither;1,9;0,0;-1;neither;0,819000005722
NSM89w;2017-06-01-16-01-08;5;13;0,871029643829;True;left;1,5;0,15;-1;left;0,355999946594
NSM89w;2017-06-01-16-01-08;5;14;0,971826594407;False;left;1,3;-0,15;1;left;0,368999958038
NSM89w;2017-06-01-16-01-08;5;15;0,895125212928;True;neither;1,5;0,15;1;neither;0,794000148773
NSM89w;2017-06-01-16-01-08;5;16;0,86371653435;False;left;1,7;0,15;-1;left;0,440999984741
NSM89w;2017-06-01-16-01-08;5;17;0,968506145053;True;left;1,1;0,15;-1;neither;0,474999904633
NSM89w;2017-06-01-16-01-08;5;18;0,947684398589;False;neither;1,9;-0,15;1;neither;1,39499998093
NSM89w;2017-06-01-16-01-08;5;19;0,845538045509;True;right;1,1;0,0;1;right;0,358999967575
NSM89w;2017-06-01-16-01-08;5;20;0,965590433794;False;both;1,1;0,0;-1;both;0,340000152588
NSM89w;2017-06-01-16-01-08;5;21;1,01901652378;True;neither;1,9;0,15;-1;left;1,09899997711
NSM89w;2017-06-01-16-01-08;5;22;1,06059726472;False;neither;1,5;0,0;-1;neither;1,69800019264
NSM89w;2017-06-01-16-01-08;5;23;0,974448591697;True;neither;1,5;-0,15;1;neither;0,753999948502
NSM89w;2017-06-01-16-01-08;5;24;1,11814745914;False;both;1,9;0,0;-1;both;0,436000108719
NSM89w;2017-06-01-16-01-08;5;25;1,14155191297;True;right;1,3;0,15;1;right;0,344000101089
NSM89w;2017-06-01-16-01-08;5;26;0,828943467244;False;both;1,9;-0,15;-1;both;0,976999998093
NSM89w;2017-06-01-16-01-08;5;27;1,03525666936;True;left;1,1;0,15;1;left;0,349999904633
NSM89w;2017-06-01-16-01-08;5;28;1,02914165609;False;left;1,7;0,0;-1;both;0,940999984741
NSM89w;2017-06-01-16-01-08;5;29;0,802201942223;True;left;1,7;-0,15;1;neither;0,427000045776
NSM89w;2017-06-01-16-01-08;5;30;1,01362304478;False;left;1,3;0,15;-1;left;0,0
NSM89w;2017-06-01-16-01-08;5;31;0,91496452977;True;right;1,9;0,15;-1;right;0,596999883652
NSM89w;2017-06-01-16-01-08;5;32;1,0370967509;False;left;1,9;-0,15;1;neither;1,02900004387
NSM89w;2017-06-01-16-01-08;5;33;1,17683663063;True;both;1,7;0,15;-1;both;0,367000102997
NSM89w;2017-06-01-16-01-08;5;34;0,929523715426;False;left;1,9;-0,15;1;neither;0,749000072479
NSM89w;2017-06-01-16-01-08;5;35;0,886606602335;True;right;1,5;0,0;-1;right;0,478000164032
NSM89w;2017-06-01-16-01-08;5;36;0,922836649927;False;left;1,9;0,15;-1;neither;1,08100008965
NSM89w;2017-06-01-16-01-08;5;37;0,869641509419;True;right;1,9;-0,15;1;neither;0,52999997139
NSM89w;2017-06-01-16-01-08;5;38;0,843347961306;False;both;1,3;0,0;1;both;0,375999927521
NSM89w;2017-06-01-16-01-08;5;39;0,828353359966;True;both;1,3;0,15;-1;both;0,576000213623
NSM89w;2017-06-01-16-01-08;5;40;0,888294525373;False;right;1,5;-0,15;-1;neither;0,572000026703
NSM89w;2017-06-01-16-01-08;5;41;0,829559014947;True;both;1,1;0,15;-1;both;1,95799994469
NSM89w;2017-06-01-16-01-08;5;42;1,04156520219;False;left;1,3;0,0;-1;both;0,897000074387
NSM89w;2017-06-01-16-01-08;5;43;1,17184975213;True;neither;1,7;0,0;1;neither;0,498999834061
NSM89w;2017-06-01-16-01-08;5;44;1,02695952005;False;right;1,1;0,0;1;neither;0,788000106812
NSM89w;2017-06-01-16-01-08;5;45;0,992174612926;True;right;1,5;-0,15;1;right;1,5
NSM89w;2017-06-01-16-01-08;6;1;0,854868335043;False;left;1,5;-0,15;-1;both;0,383000135422
NSM89w;2017-06-01-16-01-08;6;2;0,975324199311;True;right;1,7;0,15;-1;neither;0,668000221252
NSM89w;2017-06-01-16-01-08;6;3;1,18105787213;False;left;1,1;-0,15;-1;neither;1,20899987221
NSM89w;2017-06-01-16-01-08;6;4;0,97509733384;True;right;1,9;0,15;1;right;0,400000095367
NSM89w;2017-06-01-16-01-08;6;5;1,15198337998;False;right;1,5;0,15;-1;right;0,405999898911
NSM89w;2017-06-01-16-01-08;6;6;0,889498768963;True;neither;1,3;0,0;-1;neither;0,466000080109
NSM89w;2017-06-01-16-01-08;6;7;0,804002964757;False;left;1,7;0,15;1;neither;0,384999990463
NSM89w;2017-06-01-16-01-08;6;8;1,12334417265;True;neither;1,3;0,15;-1;right;0,712000131607
NSM89w;2017-06-01-16-01-08;6;9;1,14846169104;False;neither;1,1;0,15;1;neither;0,610999822617
NSM89w;2017-06-01-16-01-08;6;10;1,04681028181;True;left;1,9;0,0;1;both;0,330999851227
NSM89w;2017-06-01-16-01-08;6;11;1,00117374946;False;right;1,3;-0,15;-1;both;0,332999944687
NSM89w;2017-06-01-16-01-08;6;12;1,11741100552;True;neither;1,9;0,0;-1;neither;0,40499997139
NSM89w;2017-06-01-16-01-08;6;13;0,963812287886;False;left;1,5;0,15;-1;both;0,34600019455
NSM89w;2017-06-01-16-01-08;6;14;1,04486115416;True;left;1,3;-0,15;1;left;0,366999864578
NSM89w;2017-06-01-16-01-08;6;15;1,11948967108;False;neither;1,5;0,15;-1;neither;0,463000059128
NSM89w;2017-06-01-16-01-08;6;16;1,15098355332;True;left;1,7;0,15;-1;neither;0,388000011444
NSM89w;2017-06-01-16-01-08;6;17;1,10041948186;False;left;1,1;0,15;1;left;0,415000200272
NSM89w;2017-06-01-16-01-08;6;18;1,16060767746;True;neither;1,9;-0,15;1;neither;0,929999828339
NSM89w;2017-06-01-16-01-08;6;19;0,90059484974;False;right;1,1;0,0;1;right;0,512000083923
NSM89w;2017-06-01-16-01-08;6;20;0,965916564121;True;both;1,1;0,0;1;both;0,316999912262
NSM89w;2017-06-01-16-01-08;6;21;0,851664304539;False;neither;1,9;0,15;1;neither;0,918999910355
NSM89w;2017-06-01-16-01-08;6;22;0,959619123715;True;neither;1,5;0,0;1;neither;0,417999982834
NSM89w;2017-06-01-16-01-08;6;23;0,807468227196;False;neither;1,5;-0,15;1;neither;0,552000045776
NSM89w;2017-06-01-16-01-08;6;24;0,819418490339;True;both;1,9;0,0;1;both;0,345999956131
NSM89w;2017-06-01-16-01-08;6;25;0,802191633056;False;right;1,3;0,15;1;right;0,790999889374
NSM89w;2017-06-01-16-01-08;6;26;1,04129559433;True;both;1,9;-0,15;1;both;0,375
NSM89w;2017-06-01-16-01-08;6;27;0,916120798793;False;left;1,1;0,15;-1;left;0,355999946594
NSM89w;2017-06-01-16-01-08;6;28;0,952351747659;True;left;1,7;0,0;1;both;0,355000019073
NSM89w;2017-06-01-16-01-08;6;29;0,952250190863;False;left;1,7;-0,15;-1;neither;0,828999996185
NSM89w;2017-06-01-16-01-08;6;30;0,853355854611;True;left;1,3;0,15;-1;left;0,324999809265
NSM89w;2017-06-01-16-01-08;6;31;0,801414569911;False;right;1,9;0,15;1;neither;0,731999874115
NSM89w;2017-06-01-16-01-08;6;32;0,991650074139;True;left;1,9;-0,15;-1;both;1,26400017738
NSM89w;2017-06-01-16-01-08;6;33;0,881442601505;False;both;1,7;0,15;1;neither;1,03600001335
NSM89w;2017-06-01-16-01-08;6;34;0,809089293743;True;left;1,9;-0,15;-1;both;0,513000011444
NSM89w;2017-06-01-16-01-08;6;35;1,09228545758;False;right;1,5;0,0;1;neither;0,40299987793
NSM89w;2017-06-01-16-01-08;6;36;0,80282239519;True;left;1,9;0,15;1;neither;0,403000116348
NSM89w;2017-06-01-16-01-08;6;37;1,07622572588;False;right;1,9;-0,15;-1;right;0,388999938965
NSM89w;2017-06-01-16-01-08;6;38;0,964933505821;True;both;1,3;0,0;1;both;0,315999984741
NSM89w;2017-06-01-16-01-08;6;39;1,09834211464;False;both;1,3;0,15;-1;both;0,317999839783
NSM89w;2017-06-01-16-01-08;6;40;0,938256840589;True;right;1,5;-0,15;1;right;1,01699995995
NSM89w;2017-06-01-16-01-08;6;41;0,817857196417;False;both;1,1;0,15;1;both;0,447999954224
NSM89w;2017-06-01-16-01-08;6;42;1,12623369231;True;left;1,3;0,0;1;neither;0,43799996376
NSM89w;2017-06-01-16-01-08;6;43;0,892832026096;False;neither;1,7;0,0;-1;neither;1,07099986076
NSM89w;2017-06-01-16-01-08;6;44;0,802137978242;True;right;1,1;0,0;-1;right;0,71799993515
NSM89w;2017-06-01-16-01-08;6;45;0,92400580725;False;right;1,5;-0,15;1;neither;0,417000055313
NSM89w;2017-06-01-16-01-08;7;1;1,08701227802;True;left;1,1;-0,15;1;both;0,862999916077
NSM89w;2017-06-01-16-01-08;7;2;0,874278801535;False;right;1,5;0,15;1;right;0,408999919891
NSM89w;2017-06-01-16-01-08;7;3;0,883224341566;True;neither;1,3;-0,15;1;neither;0,961999893188
NSM89w;2017-06-01-16-01-08;7;4;0,827471036962;False;right;1,9;0,15;-1;left;1,68299984932
NSM89w;2017-06-01-16-01-08;7;5;1,01917403052;True;left;1,1;0,0;1;both;0,748000144958
NSM89w;2017-06-01-16-01-08;7;6;1,08982872638;False;right;1,1;0,15;1;right;0,449000120163
NSM89w;2017-06-01-16-01-08;7;7;1,19719406034;True;right;1,7;0,15;-1;both;0,759000062943
NSM89w;2017-06-01-16-01-08;7;8;1,1447819628;False;left;1,7;-0,15;-1;both;0,728999853134
NSM89w;2017-06-01-16-01-08;7;9;0,928426424835;True;both;1,5;-0,15;-1;both;0,365000009537
NSM89w;2017-06-01-16-01-08;7;10;0,913059379927;False;neither;1,1;0,15;-1;neither;0,546999931335
NSM89w;2017-06-01-16-01-08;7;11;1,07637456921;True;right;1,5;0,0;-1;neither;1,08000016212
NSM89w;2017-06-01-16-01-08;7;12;0,925782090958;False;right;1,3;-0,15;1;right;1,12199997902
NSM89w;2017-06-01-16-01-08;7;13;0,998780178829;True;both;1,5;0,15;-1;neither;0,87700009346
NSM89w;2017-06-01-16-01-08;7;14;1,17154009977;False;neither;1,5;0,0;-1;neither;0,662999868393
NSM89w;2017-06-01-16-01-08;7;15;0,980175876526;True;left;1,7;-0,15;-1;left;0,52999997139
NSM89w;2017-06-01-16-01-08;7;16;0,833683574947;False;right;1,1;-0,15;-1;neither;0,716000080109
NSM89w;2017-06-01-16-01-08;7;17;0,859468083819;True;right;1,7;-0,15;-1;right;1,10400009155
NSM89w;2017-06-01-16-01-08;7;18;0,834608690539;False;both;1,3;0,15;1;neither;1,06100010872
NSM89w;2017-06-01-16-01-08;7;19;1,15512138183;True;left;1,3;0,15;-1;left;0,44000005722
NSM89w;2017-06-01-16-01-08;7;20;1,03482445053;False;neither;1,3;0,0;-1;neither;1,28600001335
NSM89w;2017-06-01-16-01-08;7;21;0,886651877183;True;left;1,9;-0,15;-1;both;1,9279999733
NSM89w;2017-06-01-16-01-08;7;22;1,07888252061;False;both;1,5;0,0;1;both;0,358000040054
NSM89w;2017-06-01-16-01-08;7;23;0,848999056448;True;right;1,3;0,0;1;right;0,855999946594
NSM89w;2017-06-01-16-01-08;7;24;1,02489629918;False;left;1,3;0,15;1;left;2,73699998856
NSM89w;2017-06-01-16-01-08;7;25;1,00277981722;True;left;1,3;0,0;-1;neither;1,0720000267
NSM89w;2017-06-01-16-01-08;7;26;0,846004474693;False;left;1,9;0,0;1;both;0,350000143051
NSM89w;2017-06-01-16-01-08;7;27;1,11641827151;True;right;1,9;0,15;1;right;0,351000070572
NSM89w;2017-06-01-16-01-08;7;28;1,0088941087;False;right;1,5;-0,15;-1;both;0,720999956131
NSM89w;2017-06-01-16-01-08;7;29;0,885000930065;True;both;1,7;0,0;-1;right;0,362999916077
NSM89w;2017-06-01-16-01-08;7;30;0,892697412389;False;neither;1,7;0,0;1;neither;0,648000001907
NSM89w;2017-06-01-16-01-08;7;31;0,919703244202;True;right;1,3;0,15;-1;right;0,0
NSM89w;2017-06-01-16-01-08;7;32;1,02130436656;False;right;1,5;0,0;1;right;0,319000005722
NSM89w;2017-06-01-16-01-08;7;33;1,06447983251;True;left;1,9;0,15;-1;left;0,387000083923
NSM89w;2017-06-01-16-01-08;7;34;0,991342371032;False;both;1,9;0,15;1;left;0,570999860764
NSM89w;2017-06-01-16-01-08;7;35;1,068498724;True;right;1,7;0,0;-1;left;0,81299996376
NSM89w;2017-06-01-16-01-08;7;36;0,830399958516;False;both;1,3;-0,15;-1;both;0,296000003815
NSM89w;2017-06-01-16-01-08;7;37;0,948496709775;True;right;1,7;0,15;1;right;1,09299993515
NSM89w;2017-06-01-16-01-08;7;38;1,17175506001;False;left;1,5;0,0;-1;left;0,435000181198
NSM89w;2017-06-01-16-01-08;7;39;1,00831116817;True;left;1,5;0,0;1;neither;0,361000061035
NSM89w;2017-06-01-16-01-08;7;40;0,972603718112;False;left;1,9;0,15;-1;neither;0,332000017166
NSM89w;2017-06-01-16-01-08;7;41;0,84883841002;True;both;1,7;-0,15;-1;both;0,355999946594
NSM89w;2017-06-01-16-01-08;7;42;1,01232840763;False;neither;1,5;0,15;1;neither;0,776999950409
NSM89w;2017-06-01-16-01-08;7;43;0,853059733551;True;left;1,1;0,0;-1;both;0,307000160217
NSM89w;2017-06-01-16-01-08;7;44;0,874375785949;False;neither;1,1;0,0;-1;neither;0,52999997139
NSM89w;2017-06-01-16-01-08;7;45;1,18909852852;True;right;1,3;0,15;1;both;0,676000118256
NSM89w;2017-06-01-16-01-08;8;1;0,855073430594;False;left;1,1;-0,15;-1;both;0,352999925613
NSM89w;2017-06-01-16-01-08;8;2;0,842799783557;True;right;1,5;0,15;-1;right;0,319000005722
NSM89w;2017-06-01-16-01-08;8;3;1,06033355635;False;neither;1,3;-0,15;-1;neither;0,347999811172
NSM89w;2017-06-01-16-01-08;8;4;0,905794568195;True;right;1,9;0,15;1;both;2,34000015259
NSM89w;2017-06-01-16-01-08;8;5;0,959795271403;False;left;1,1;0,0;-1;left;0,345999956131
NSM89w;2017-06-01-16-01-08;8;6;0,990001095803;True;right;1,1;0,15;-1;neither;0,40499997139
NSM89w;2017-06-01-16-01-08;8;7;1,10344111933;False;right;1,7;0,15;1;right;0,47100019455
NSM89w;2017-06-01-16-01-08;8;8;1,02777513272;True;left;1,7;-0,15;1;left;0,335999965668
NSM89w;2017-06-01-16-01-08;8;9;1,1239111184;False;both;1,5;-0,15;-1;both;0,331000089645
NSM89w;2017-06-01-16-01-08;8;10;1,05557100569;True;neither;1,1;0,15;-1;neither;0,421000003815
NSM89w;2017-06-01-16-01-08;8;11;1,07040557148;False;right;1,5;0,0;-1;right;0,0
NSM89w;2017-06-01-16-01-08;8;12;1,10955827615;True;right;1,3;-0,15;1;neither;0,68799996376
NSM89w;2017-06-01-16-01-08;8;13;0,857489876622;False;both;1,5;0,15;1;both;0,339999914169
NSM89w;2017-06-01-16-01-08;8;14;0,847746742888;True;neither;1,5;0,0;1;neither;0,957999944687
NSM89w;2017-06-01-16-01-08;8;15;0,994199237556;False;left;1,7;-0,15;1;neither;0,371000051498
NSM89w;2017-06-01-16-01-08;8;16;0,900544439014;True;right;1,1;-0,15;-1;both;0,3140001297
NSM89w;2017-06-01-16-01-08;8;17;1,15486132552;False;right;1,7;-0,15;1;both;1,0609998703
NSM89w;2017-06-01-16-01-08;8;18;1,14551562376;True;both;1,3;0,15;-1;neither;1,5649998188
NSM89w;2017-06-01-16-01-08;8;19;0,841960797868;False;left;1,3;0,15;-1;neither;0,410000085831
NSM89w;2017-06-01-16-01-08;8;20;1,14515588214;True;neither;1,3;0,0;-1;neither;0,795000076294
NSM89w;2017-06-01-16-01-08;8;21;1,09432251817;False;left;1,9;-0,15;1;both;0,417999982834
NSM89w;2017-06-01-16-01-08;8;22;0,854780255484;True;both;1,5;0,0;-1;neither;0,695000171661
NSM89w;2017-06-01-16-01-08;8;23;1,06178693299;False;right;1,3;0,0;1;right;0,331000089645
NSM89w;2017-06-01-16-01-08;8;24;1,04260377019;True;left;1,3;0,15;-1;left;0,328000068665
NSM89w;2017-06-01-16-01-08;8;25;1,18504193707;False;left;1,3;0,0;-1;left;0,344000101089
NSM89w;2017-06-01-16-01-08;8;26;0,848838784706;True;left;1,9;0,0;-1;left;1,1210000515
NSM89w;2017-06-01-16-01-08;8;27;0,920889650284;False;right;1,9;0,15;-1;neither;0,391999959946
NSM89w;2017-06-01-16-01-08;8;28;1,0546684198;True;right;1,5;-0,15;-1;both;0,398999929428
NSM89w;2017-06-01-16-01-08;8;29;1,18356062406;False;both;1,7;0,0;1;neither;0,371999979019
NSM89w;2017-06-01-16-01-08;8;30;0,967469772445;True;neither;1,7;0,0;1;neither;0,376999855042
NSM89w;2017-06-01-16-01-08;8;31;1,1762542346;False;right;1,3;0,15;-1;right;0,210000038147
NSM89w;2017-06-01-16-01-08;8;32;1,1052186528;True;right;1,5;0,0;-1;both;0,323999881744
NSM89w;2017-06-01-16-01-08;8;33;1,15036733928;False;left;1,9;0,15;-1;neither;0,87700009346
NSM89w;2017-06-01-16-01-08;8;34;0,859918793263;True;both;1,9;0,15;1;both;0,315999984741
NSM89w;2017-06-01-16-01-08;8;35;0,939724425591;False;right;1,7;0,0;1;both;1,44000005722
NSM89w;2017-06-01-16-01-08;8;36;1,07332906637;True;both;1,3;-0,15;-1;both;0,335999965668
NSM89w;2017-06-01-16-01-08;8;37;1,02342630437;False;right;1,7;0,15;1;neither;0,516999959946
NSM89w;2017-06-01-16-01-08;8;38;1,00880176159;True;left;1,5;0,0;-1;neither;0,379999876022
NSM89w;2017-06-01-16-01-08;8;39;1,05096525906;False;left;1,5;0,0;-1;left;0,339000225067
NSM89w;2017-06-01-16-01-08;8;40;0,89269257645;True;left;1,9;0,15;1;both;1,8029999733
NSM89w;2017-06-01-16-01-08;8;41;1,06096060498;False;both;1,7;-0,15;1;both;0,378999948502
NSM89w;2017-06-01-16-01-08;8;42;0,992708450018;True;neither;1,5;0,15;1;both;1,24699997902
NSM89w;2017-06-01-16-01-08;8;43;1,1509016214;False;left;1,1;0,0;1;neither;0,424000024796
NSM89w;2017-06-01-16-01-08;8;44;1,15691385998;True;neither;1,1;0,0;-1;both;1,13800001144
NSM89w;2017-06-01-16-01-08;8;45;1,12649891584;False;right;1,3;0,15;-1;neither;0,366999864578
NSM89w;2017-06-01-16-01-08;9;1;0,993085314793;True;right;1,3;0,0;1;right;0,326999902725
NSM89w;2017-06-01-16-01-08;9;2;1,15947322078;False;right;1,3;0,15;1;both;0,315999984741
NSM89w;2017-06-01-16-01-08;9;3;1,11073731682;True;left;1,9;0,0;-1;left;1,46700000763
NSM89w;2017-06-01-16-01-08;9;4;1,01422556971;False;right;1,1;0,0;-1;neither;0,364000082016
NSM89w;2017-06-01-16-01-08;9;5;0,868041420518;True;right;1,7;0,0;1;both;0,440999984741
NSM89w;2017-06-01-16-01-08;9;6;0,854435593631;False;right;1,7;0,15;1;both;0,242000102997
NSM89w;2017-06-01-16-01-08;9;7;1,01422039332;True;neither;1,5;0,0;-1;neither;0,993000030518
NSM89w;2017-06-01-16-01-08;9;8;0,820821431179;False;neither;1,9;-0,15;-1;neither;0,458999872208
NSM89w;2017-06-01-16-01-08;9;9;0,907431899909;True;both;1,7;0,15;-1;both;0,31200003624
NSM89w;2017-06-01-16-01-08;9;10;1,16621511059;False;left;1,3;0,0;-1;left;0,330999851227
NSM89w;2017-06-01-16-01-08;9;11;1,04106220806;True;right;1,5;-0,15;1;both;0,802000045776
NSM89w;2017-06-01-16-01-08;9;12;0,924310494381;False;both;1,5;-0,15;1;both;0,319999933243
NSM89w;2017-06-01-16-01-08;9;13;1,18637365593;True;right;1,7;0,0;1;right;1,70499992371
NSM89w;2017-06-01-16-01-08;9;14;0,977261406693;False;left;1,1;0,0;1;left;0,888000011444
NSM89w;2017-06-01-16-01-08;9;15;1,02257776861;True;both;1,1;0,15;-1;left;0,406999826431
NSM89w;2017-06-01-16-01-08;9;16;1,09135280769;False;both;1,3;0,15;-1;both;0,358000040054
NSM89w;2017-06-01-16-01-08;9;17;0,906856769629;True;neither;1,7;0,0;-1;neither;0,406000137329
NSM89w;2017-06-01-16-01-08;9;18;1,13206564017;False;left;1,1;0,15;-1;left;0,0
NSM89w;2017-06-01-16-01-08;9;19;1,01062298656;True;right;1,1;0,15;-1;left;0,857000112534
NSM89w;2017-06-01-16-01-08;9;20;0,936286909413;False;both;1,7;-0,15;1;both;0,436000108719
NSM89w;2017-06-01-16-01-08;9;21;1,12189432117;True;left;1,9;-0,15;1;left;0,823000192642
NSM89w;2017-06-01-16-01-08;9;22;0,82382392996;False;right;1,9;0,15;-1;right;0,567999839783
NSM89w;2017-06-01-16-01-08;9;23;0,934104891918;True;left;1,3;-0,15;-1;neither;0,640999794006
NSM89w;2017-06-01-16-01-08;9;24;0,839459822706;False;both;1,9;0,0;-1;both;0,344000101089
NSM89w;2017-06-01-16-01-08;9;25;0,937888007742;True;left;1,7;-0,15;-1;left;0,276999950409
NSM89w;2017-06-01-16-01-08;9;26;1,19788935652;False;right;1,9;0,0;-1;right;0,424000024796
NSM89w;2017-06-01-16-01-08;9;27;1,17499207058;True;left;1,7;0,0;1;left;0,266999959946
NSM89w;2017-06-01-16-01-08;9;28;0,899678925566;False;left;1,5;0,0;-1;left;0,278000116348
NSM89w;2017-06-01-16-01-08;9;29;0,881075460968;True;right;1,3;-0,15;1;neither;0,390999794006
NSM89w;2017-06-01-16-01-08;9;30;0,914823251905;False;left;1,5;-0,15;-1;both;2,17899990082
NSM89w;2017-06-01-16-01-08;9;31;0,826555231392;True;left;1,5;0,0;-1;both;0,314999818802
NSM89w;2017-06-01-16-01-08;9;32;0,85482352207;False;left;1,5;-0,15;-1;left;0,259999990463
NSM89w;2017-06-01-16-01-08;9;33;0,812443701954;True;neither;1,7;0,15;-1;neither;1,01599979401
NSM89w;2017-06-01-16-01-08;9;34;1,17855275724;False;right;1,3;-0,15;1;right;0,351999998093
NSM89w;2017-06-01-16-01-08;9;35;1,08415379492;True;right;1,3;0,15;-1;neither;0,432000160217
NSM89w;2017-06-01-16-01-08;9;36;1,10961768565;False;neither;1,5;-0,15;-1;neither;0,697000026703
NSM89w;2017-06-01-16-01-08;9;37;1,14052174008;True;neither;1,9;0,15;1;neither;0,881000041962
NSM89w;2017-06-01-16-01-08;9;38;1,18616467733;False;right;1,9;0,15;1;neither;0,499000072479
NSM89w;2017-06-01-16-01-08;9;39;0,960701317817;True;both;1,1;-0,15;-1;both;0,296999931335
NSM89w;2017-06-01-16-01-08;9;40;0,994472403397;False;right;1,1;0,0;-1;both;1,11500000954
NSM89w;2017-06-01-16-01-08;9;41;1,01269629921;True;left;1,7;0,15;-1;both;1,27099990845
NSM89w;2017-06-01-16-01-08;9;42;1,15169441299;False;left;1,9;-0,15;-1;both;0,733000040054
NSM89w;2017-06-01-16-01-08;9;43;0,911349478137;True;right;1,7;-0,15;1;neither;0,93700003624
NSM89w;2017-06-01-16-01-08;9;44;1,17600098992;False;both;1,1;0,0;1;neither;0,331000089645
NSM89w;2017-06-01-16-01-08;9;45;1,12562114487;True;left;1,9;0,15;1;left;0,328999996185
NSM89w;2017-06-01-16-01-08;10;1;0,811216941169;False;right;1,3;0,0;-1;both;0,648000001907
NSM89w;2017-06-01-16-01-08;10;2;0,937378228678;True;right;1,3;0,15;-1;neither;0,759999990463
NSM89w;2017-06-01-16-01-08;10;3;1,07636567574;False;left;1,9;0,0;-1;right;0,853999853134
NSM89w;2017-06-01-16-01-08;10;4;0,87947411534;True;right;1,1;0,0;-1;right;0,164999961853
NSM89w;2017-06-01-16-01-08;10;5;0,875345158965;False;right;1,7;0,0;1;neither;0,355999946594
NSM89w;2017-06-01-16-01-08;10;6;0,952546925285;True;right;1,7;0,15;-1;right;0,350000143051
NSM89w;2017-06-01-16-01-08;10;7;1,00293728583;False;neither;1,5;0,0;-1;both;0,359000205994
NSM89w;2017-06-01-16-01-08;10;8;0,86113440093;True;neither;1,9;-0,15;-1;neither;0,84500002861
NSM89w;2017-06-01-16-01-08;10;9;0,850783962807;False;both;1,7;0,15;-1;right;0,296000003815
NSM89w;2017-06-01-16-01-08;10;10;0,822506507836;True;left;1,3;0,0;-1;left;0,501999855042
NSM89w;2017-06-01-16-01-08;10;11;0,931668272836;False;right;1,5;-0,15;-1;both;0,353000164032
NSM89w;2017-06-01-16-01-08;10;12;1,17355401968;True;both;1,5;-0,15;-1;neither;0,671000003815
NSM89w;2017-06-01-16-01-08;10;13;0,861964348556;False;right;1,7;0,0;1;right;0,34700012207
NSM89w;2017-06-01-16-01-08;10;14;1,14681802637;True;left;1,1;0,0;1;left;0,302999973297
NSM89w;2017-06-01-16-01-08;10;15;0,804770168971;False;both;1,1;0,15;1;both;0,289000034332
NSM89w;2017-06-01-16-01-08;10;16;0,872114044648;True;both;1,3;0,15;-1;both;0,287000179291
NSM89w;2017-06-01-16-01-08;10;17;0,84978302464;False;neither;1,7;0,0;1;neither;0,338999986649
NSM89w;2017-06-01-16-01-08;10;18;0,911076504326;True;left;1,1;0,15;-1;left;0,317000150681
NSM89w;2017-06-01-16-01-08;10;19;0,891608564441;False;right;1,1;0,15;1;neither;0,522000074387
NSM89w;2017-06-01-16-01-08;10;20;0,817453373676;True;both;1,7;-0,15;-1;both;0,266999959946
NSM89w;2017-06-01-16-01-08;10;21;0,859372069165;False;left;1,9;-0,15;1;both;0,401000022888
NSM89w;2017-06-01-16-01-08;10;22;0,970524345221;True;right;1,9;0,15;-1;right;0,452000141144
NSM89w;2017-06-01-16-01-08;10;23;0,93244005144;False;left;1,3;-0,15;1;both;0,276999950409
NSM89w;2017-06-01-16-01-08;10;24;0,914497765611;True;both;1,9;0,0;1;both;0,470999956131
NSM89w;2017-06-01-16-01-08;10;25;0,939865343973;False;left;1,7;-0,15;1;left;0,298000097275
NSM89w;2017-06-01-16-01-08;10;26;1,05453430077;True;right;1,9;0,0;-1;right;0,503999948502
NSM89w;2017-06-01-16-01-08;10;27;0,9207761872;False;left;1,7;0,0;1;left;0,160000085831
NSM89w;2017-06-01-16-01-08;10;28;0,865805085538;True;left;1,5;0,0;-1;left;0,0
NSM89w;2017-06-01-16-01-08;10;29;1,01549518894;False;right;1,3;-0,15;-1;both;0,331000089645
NSM89w;2017-06-01-16-01-08;10;30;1,09547303375;True;left;1,5;-0,15;1;neither;0,328999996185
NSM89w;2017-06-01-16-01-08;10;31;0,985537024382;False;left;1,5;0,0;-1;neither;0,31200003624
NSM89w;2017-06-01-16-01-08;10;32;1,18283023072;True;left;1,5;-0,15;-1;both;0,0
NSM89w;2017-06-01-16-01-08;10;33;1,05435815758;False;neither;1,7;0,15;-1;neither;0,513000011444
NSM89w;2017-06-01-16-01-08;10;34;1,08899843308;True;right;1,3;-0,15;-1;neither;0,376999855042
NSM89w;2017-06-01-16-01-08;10;35;0,8901495422;False;right;1,3;0,15;1;neither;0,318000078201
NSM89w;2017-06-01-16-01-08;10;36;0,925982945307;True;neither;1,5;-0,15;1;neither;0,56200003624
NSM89w;2017-06-01-16-01-08;10;37;0,846809648909;False;neither;1,9;0,15;-1;both;1,50300002098
NSM89w;2017-06-01-16-01-08;10;38;1,19448172666;True;right;1,9;0,15;-1;both;0,0
NSM89w;2017-06-01-16-01-08;10;39;0,903672264913;False;both;1,1;-0,15;-1;both;0,25
NSM89w;2017-06-01-16-01-08;10;40;1,09288240869;True;right;1,1;0,0;-1;both;0,31299996376
NSM89w;2017-06-01-16-01-08;10;41;0,88213498823;False;left;1,7;0,15;1;neither;1,99599981308
NSM89w;2017-06-01-16-01-08;10;42;0,992837748813;True;left;1,9;-0,15;1;both;0,394000053406
NSM89w;2017-06-01-16-01-08;10;43;0,852526694201;False;right;1,7;-0,15;1;neither;0,388999938965
NSM89w;2017-06-01-16-01-08;10;44;1,1293142218;True;both;1,1;0,0;-1;both;1,16499996185
NSM89w;2017-06-01-16-01-08;10;45;1,13651290367;False;left;1,9;0,15;-1;neither;0,638000011444
