Observer;SessionID;Block;Trial;OnsetDelay;Yellow;Switch;SwitchTime;Gap;Direction;Response;RT
RZN88w;2017-06-01-11-16-18;1;1;0,946249554345;True;right;1,3;-0,15;-1;left;3,24000000954
RZN88w;2017-06-01-11-16-18;1;2;1,16447299363;False;left;1,1;0,0;1;both;1,31599998474
RZN88w;2017-06-01-11-16-18;1;3;1,17693080635;True;neither;1,3;0,15;-1;right;0,670000076294
RZN88w;2017-06-01-11-16-18;1;4;1,07728761876;False;left;1,7;0,0;1;left;1,27700018883
RZN88w;2017-06-01-11-16-18;1;5;1,14934381962;True;neither;1,9;-0,15;-1;right;0,52999997139
RZN88w;2017-06-01-11-16-18;1;6;1,06834565471;False;right;1,9;0,15;-1;right;0,782999992371
RZN88w;2017-06-01-11-16-18;1;7;0,955942960106;True;right;1,7;0,15;-1;both;0,561999797821
RZN88w;2017-06-01-11-16-18;1;8;1,0896457659;False;left;1,5;0,15;-1;right;0,537999868393
RZN88w;2017-06-01-11-16-18;1;9;0,941944425095;True;right;1,5;0,15;1;both;0,363999843597
RZN88w;2017-06-01-11-16-18;1;10;0,95141732803;False;right;1,7;0,0;1;both;0,0499999523163
RZN88w;2017-06-01-11-16-18;1;11;0,810876033508;True;right;1,1;0,15;-1;both;0,960000038147
RZN88w;2017-06-01-11-16-18;1;12;0,900172936036;False;neither;1,7;0,15;-1;right;1,4319999218
RZN88w;2017-06-01-11-16-18;1;13;0,957561309059;True;left;1,1;0,0;1;both;0,569000005722
RZN88w;2017-06-01-11-16-18;1;14;1,16806874255;False;left;1,3;0,0;1;both;0,490000009537
RZN88w;2017-06-01-11-16-18;1;15;1,13093040559;True;left;1,3;0,15;-1;right;0,902000188828
RZN88w;2017-06-01-11-16-18;1;16;0,910770008502;False;left;1,9;0,15;1;both;0,651999950409
RZN88w;2017-06-01-11-16-18;1;17;1,009072525;True;right;1,1;0,15;-1;both;0,397000074387
RZN88w;2017-06-01-11-16-18;1;18;0,834635979191;False;left;1,5;-0,15;-1;both;0,361999988556
RZN88w;2017-06-01-11-16-18;1;19;0,809487417162;True;neither;1,1;0,0;1;right;1,56999993324
RZN88w;2017-06-01-11-16-18;1;20;1,07467214936;False;neither;1,3;-0,15;-1;right;0,801000118256
RZN88w;2017-06-01-11-16-18;1;21;1,08232432043;True;both;1,1;-0,15;1;both;0,105000019073
RZN88w;2017-06-01-11-16-18;1;22;0,842987494027;False;left;1,7;0,15;-1;both;0,547000169754
RZN88w;2017-06-01-11-16-18;1;23;1,02473217032;True;neither;1,5;-0,15;-1;left;0,395999908447
RZN88w;2017-06-01-11-16-18;1;24;0,997237097674;False;left;1,1;-0,15;1;left;0,455000162125
RZN88w;2017-06-01-11-16-18;1;25;1,00578917473;True;right;1,5;0,15;-1;left;2,59800004959
RZN88w;2017-06-01-11-16-18;1;26;0,933401791773;False;right;1,3;0,0;1;left;1,17000007629
RZN88w;2017-06-01-11-16-18;1;27;1,19285074461;True;left;1,1;0,15;1;left;0,526999950409
RZN88w;2017-06-01-11-16-18;1;28;0,876203485874;False;left;1,9;-0,15;1;left;0,0820000171661
RZN88w;2017-06-01-11-16-18;1;29;1,19869367139;True;both;1,7;0,0;-1;left;0,600000143051
RZN88w;2017-06-01-11-16-18;1;30;0,931125622299;False;both;1,5;0,0;1;left;0,0
RZN88w;2017-06-01-11-16-18;1;31;1,05911118972;True;left;1,5;-0,15;-1;left;0,0
RZN88w;2017-06-01-11-16-18;1;32;1,15355963398;False;neither;1,7;0,0;1;left;0,512000083923
RZN88w;2017-06-01-11-16-18;1;33;0,879184182556;True;left;1,1;-0,15;-1;left;0,404000043869
RZN88w;2017-06-01-11-16-18;1;34;1,02126712702;False;left;1,3;-0,15;1;left;2,67100000381
RZN88w;2017-06-01-11-16-18;1;35;1,17886390745;True;right;1,9;0,0;-1;both;0,0409998893738
RZN88w;2017-06-01-11-16-18;1;36;0,984151300243;False;right;1,5;0,0;1;both;0,0
RZN88w;2017-06-01-11-16-18;1;37;1,05611907262;True;neither;1,3;0,0;1;left;0,476000070572
RZN88w;2017-06-01-11-16-18;1;38;0,960537291719;False;left;1,7;-0,15;1;left;0,0
RZN88w;2017-06-01-11-16-18;1;39;1,11457530757;True;right;1,7;0,15;1;left;0,0
RZN88w;2017-06-01-11-16-18;1;40;1,05681677458;False;left;1,5;0,0;1;both;0,0
RZN88w;2017-06-01-11-16-18;1;41;0,926563103505;True;both;1,7;-0,15;-1;left;0,495000123978
RZN88w;2017-06-01-11-16-18;1;42;0,947178164928;False;neither;1,5;0,15;1;left;0,373999834061
RZN88w;2017-06-01-11-16-18;1;43;1,12624783097;True;right;1,1;0,0;-1;both;0,0
RZN88w;2017-06-01-11-16-18;1;44;0,914131804456;False;neither;1,5;0,0;1;neither;0,376000165939
RZN88w;2017-06-01-11-16-18;1;45;0,886560428699;True;right;1,9;0,15;1;left;0,15299987793
RZN88w;2017-06-01-11-16-18;2;1;0,979690644401;False;right;1,3;-0,15;-1;left;0,0
RZN88w;2017-06-01-11-16-18;2;2;0,880582593363;True;left;1,1;0,0;1;right;0,0
RZN88w;2017-06-01-11-16-18;2;3;1,13391394841;False;neither;1,3;0,15;1;left;0,384999990463
RZN88w;2017-06-01-11-16-18;2;4;0,933384585455;True;left;1,7;0,0;-1;left;0,355999946594
RZN88w;2017-06-01-11-16-18;2;5;0,918992653174;False;neither;1,9;-0,15;-1;left;0,318000078201
RZN88w;2017-06-01-11-16-18;2;6;1,04901037643;True;right;1,9;0,15;-1;left;0,0
RZN88w;2017-06-01-11-16-18;2;7;0,939182269126;False;right;1,7;0,15;-1;left;0,0
RZN88w;2017-06-01-11-16-18;2;8;0,809847862359;True;left;1,5;0,15;1;left;0,0
RZN88w;2017-06-01-11-16-18;2;9;0,919722275234;False;right;1,5;0,15;1;left;0,000999927520752
RZN88w;2017-06-01-11-16-18;2;10;0,807755373514;True;right;1,7;0,0;-1;left;0,0
RZN88w;2017-06-01-11-16-18;2;11;1,17460311698;False;right;1,1;0,15;1;both;0,0
RZN88w;2017-06-01-11-16-18;2;12;1,09356194271;True;neither;1,7;0,15;-1;right;0,0
RZN88w;2017-06-01-11-16-18;2;13;1,19170195476;False;left;1,1;0,0;-1;both;0,0
RZN88w;2017-06-01-11-16-18;2;14;0,958432982502;True;left;1,3;0,0;1;both;0,647000074387
RZN88w;2017-06-01-11-16-18;2;15;1,06690647296;False;left;1,3;0,15;-1;left;0,523999929428
RZN88w;2017-06-01-11-16-18;2;16;1,16683267178;True;left;1,9;0,15;-1;both;0,607000112534
RZN88w;2017-06-01-11-16-18;2;17;1,16346476786;False;right;1,1;0,15;-1;both;0,401000022888
RZN88w;2017-06-01-11-16-18;2;18;0,935687532826;True;left;1,5;-0,15;1;left;0,356999874115
RZN88w;2017-06-01-11-16-18;2;19;1,07844153;False;neither;1,1;0,0;1;right;0,0
RZN88w;2017-06-01-11-16-18;2;20;0,918262073971;True;neither;1,3;-0,15;-1;right;0,0
RZN88w;2017-06-01-11-16-18;2;21;1,12656778496;False;both;1,1;-0,15;-1;both;0,0
RZN88w;2017-06-01-11-16-18;2;22;1,0588393843;True;left;1,7;0,15;-1;both;0,0
RZN88w;2017-06-01-11-16-18;2;23;1,04998493455;False;neither;1,5;-0,15;1;right;0,463000059128
RZN88w;2017-06-01-11-16-18;2;24;1,13084859677;True;left;1,1;-0,15;1;both;0,603999853134
RZN88w;2017-06-01-11-16-18;2;25;1,1948819631;False;right;1,5;0,15;-1;both;0,0
RZN88w;2017-06-01-11-16-18;2;26;0,84806778806;True;right;1,3;0,0;1;both;0,0
RZN88w;2017-06-01-11-16-18;2;27;0,855858665264;False;left;1,1;0,15;1;both;0,0
RZN88w;2017-06-01-11-16-18;2;28;0,831015702383;True;left;1,9;-0,15;-1;both;0,0
RZN88w;2017-06-01-11-16-18;2;29;1,01042751773;False;both;1,7;0,0;1;both;0,138000011444
RZN88w;2017-06-01-11-16-18;2;30;0,948790480104;True;both;1,5;0,0;-1;both;0,138000011444
RZN88w;2017-06-01-11-16-18;2;31;0,89454727009;False;left;1,5;-0,15;-1;both;0,517999887466
RZN88w;2017-06-01-11-16-18;2;32;1,04361246807;True;neither;1,7;0,0;1;both;0,386999845505
RZN88w;2017-06-01-11-16-18;2;33;0,905696716953;False;left;1,1;-0,15;1;both;0,00100016593933
RZN88w;2017-06-01-11-16-18;2;34;1,14987656609;True;left;1,3;-0,15;1;both;0,0
RZN88w;2017-06-01-11-16-18;2;35;1,01429392445;False;right;1,9;0,0;-1;both;0,0
RZN88w;2017-06-01-11-16-18;2;36;0,898507283546;True;right;1,5;0,0;1;both;0,0
RZN88w;2017-06-01-11-16-18;2;37;1,04207606894;False;neither;1,3;0,0;-1;both;0,0
RZN88w;2017-06-01-11-16-18;2;38;1,08381577102;True;left;1,7;-0,15;1;both;0,0
RZN88w;2017-06-01-11-16-18;2;39;1,01908449185;False;right;1,7;0,15;1;neither;0,694000005722
RZN88w;2017-06-01-11-16-18;2;40;0,8762376405;True;left;1,5;0,0;-1;neither;0,0
RZN88w;2017-06-01-11-16-18;2;41;1,0727974037;False;both;1,7;-0,15;-1;neither;0,0
RZN88w;2017-06-01-11-16-18;2;42;0,837804960781;True;neither;1,5;0,15;-1;neither;0,0
RZN88w;2017-06-01-11-16-18;2;43;1,15535570617;False;right;1,1;0,0;1;neither;0,0
RZN88w;2017-06-01-11-16-18;2;44;0,807624385967;True;neither;1,5;0,0;-1;neither;0,0
RZN88w;2017-06-01-11-16-18;2;45;0,88985071743;False;right;1,9;0,15;1;neither;0,000999927520752
RZN88w;2017-06-01-11-16-18;3;1;1,01232800148;True;left;1,1;-0,15;1;both;0,306000232697
RZN88w;2017-06-01-11-16-18;3;2;0,884817127607;False;right;1,9;0,15;1;both;0,368999958038
RZN88w;2017-06-01-11-16-18;3;3;0,870917276554;True;left;1,1;0,15;-1;both;0,663000106812
RZN88w;2017-06-01-11-16-18;3;4;0,932810944291;False;right;1,1;0,15;1;both;2,14100003242
RZN88w;2017-06-01-11-16-18;3;5;0,938712910885;True;right;1,3;0,15;-1;both;0,210000038147
RZN88w;2017-06-01-11-16-18;3;6;0,97072724685;False;left;1,3;-0,15;1;right;1,14199995995
RZN88w;2017-06-01-11-16-18;3;7;0,86685599657;True;left;1,5;0,15;-1;both;0,00100016593933
RZN88w;2017-06-01-11-16-18;3;8;0,80686254622;False;right;1,5;0,0;-1;both;0,0
RZN88w;2017-06-01-11-16-18;3;9;0,808179753616;True;right;1,7;0,15;-1;both;0,0
RZN88w;2017-06-01-11-16-18;3;10;0,913948973039;False;left;1,7;0,0;-1;right;0,605999946594
RZN88w;2017-06-01-11-16-18;3;11;0,832059853006;True;left;1,3;0,0;1;right;0,543000221252
RZN88w;2017-06-01-11-16-18;3;12;1,10860593463;False;left;1,1;0,15;-1;right;0,0
RZN88w;2017-06-01-11-16-18;3;13;1,03964296304;True;neither;1,5;0,0;1;right;0,0
RZN88w;2017-06-01-11-16-18;3;14;0,965539893069;False;left;1,9;0,0;1;both;0,0840001106262
RZN88w;2017-06-01-11-16-18;3;15;0,833202743242;True;right;1,1;-0,15;1;both;0,0
RZN88w;2017-06-01-11-16-18;3;16;0,841321733278;False;left;1,7;0,0;-1;both;0,0
RZN88w;2017-06-01-11-16-18;3;17;0,811926139141;True;neither;1,5;0,15;1;right;0,414999961853
RZN88w;2017-06-01-11-16-18;3;18;1,02670868317;False;left;1,5;0,15;-1;right;0,429000139236
RZN88w;2017-06-01-11-16-18;3;19;1,10798760292;True;right;1,1;0,0;-1;right;0,482000112534
RZN88w;2017-06-01-11-16-18;3;20;0,941424775495;False;both;1,1;0,15;-1;both;0,0
RZN88w;2017-06-01-11-16-18;3;21;0,883968467509;True;right;1,7;0,15;1;right;0,566999912262
RZN88w;2017-06-01-11-16-18;3;22;1,19691451729;False;right;1,9;-0,15;-1;both;0,0
RZN88w;2017-06-01-11-16-18;3;23;0,990916112222;True;right;1,9;0,0;-1;both;0,0
RZN88w;2017-06-01-11-16-18;3;24;0,892964905771;False;both;1,7;-0,15;-1;both;0,144000053406
RZN88w;2017-06-01-11-16-18;3;25;1,13284629811;True;left;1,9;0,15;1;both;0,0
RZN88w;2017-06-01-11-16-18;3;26;1,02003664297;False;right;1,1;-0,15;-1;right;0,391000032425
RZN88w;2017-06-01-11-16-18;3;27;0,839458632238;True;right;1,5;-0,15;1;both;0,0769999027252
RZN88w;2017-06-01-11-16-18;3;28;0,939976393567;False;right;1,7;0,0;1;both;0,0
RZN88w;2017-06-01-11-16-18;3;29;1,02624321055;True;right;1,7;-0,15;1;both;0,0
RZN88w;2017-06-01-11-16-18;3;30;1,08549556233;False;both;1,7;0,15;1;both;0,675999879837
RZN88w;2017-06-01-11-16-18;3;31;0,987148495395;True;both;1,9;-0,15;-1;right;0,0
RZN88w;2017-06-01-11-16-18;3;32;1,15009043277;False;right;1,5;0,15;1;both;0,0
RZN88w;2017-06-01-11-16-18;3;33;0,935438582129;True;neither;1,3;0,15;-1;right;0,90700006485
RZN88w;2017-06-01-11-16-18;3;34;0,916249164287;False;right;1,1;0,15;-1;both;0,0
RZN88w;2017-06-01-11-16-18;3;35;1,18939623854;True;both;1,5;-0,15;1;both;0,0
RZN88w;2017-06-01-11-16-18;3;36;1,08102346214;False;both;1,9;0,15;-1;both;0,0
RZN88w;2017-06-01-11-16-18;3;37;0,939867508195;True;right;1,3;0,0;-1;both;0,0
RZN88w;2017-06-01-11-16-18;3;38;0,880527048582;False;right;1,3;-0,15;1;both;0,0709998607635
RZN88w;2017-06-01-11-16-18;3;39;0,855398268314;True;neither;1,3;0,0;1;both;0,101999998093
RZN88w;2017-06-01-11-16-18;3;40;0,963575192752;False;right;1,5;0,15;-1;both;0,0
RZN88w;2017-06-01-11-16-18;3;41;0,934757190631;True;left;1,9;-0,15;-1;both;0,12700009346
RZN88w;2017-06-01-11-16-18;3;42;0,956946663222;False;left;1,5;-0,15;1;both;0,0
RZN88w;2017-06-01-11-16-18;3;43;1,09617986158;True;neither;1,1;0,15;1;left;0,56600022316
RZN88w;2017-06-01-11-16-18;3;44;1,03886822892;False;both;1,5;0,15;-1;both;0,0
RZN88w;2017-06-01-11-16-18;3;45;1,05023879829;True;left;1,7;-0,15;1;both;0,0
RZN88w;2017-06-01-11-16-18;4;1;0,922624977053;False;left;1,1;-0,15;-1;both;0,000999927520752
RZN88w;2017-06-01-11-16-18;4;2;0,898392088345;True;right;1,9;0,15;1;both;0,0
RZN88w;2017-06-01-11-16-18;4;3;0,922567043027;False;left;1,1;0,15;-1;both;0,0
RZN88w;2017-06-01-11-16-18;4;4;1,07578565174;True;right;1,1;0,15;1;both;0,0
RZN88w;2017-06-01-11-16-18;4;5;0,85063812228;False;right;1,3;0,15;1;both;0,0
RZN88w;2017-06-01-11-16-18;4;6;1,11452179476;True;left;1,3;-0,15;-1;both;0,0
RZN88w;2017-06-01-11-16-18;4;7;0,805782764303;False;left;1,5;0,15;1;both;0,00100016593933
RZN88w;2017-06-01-11-16-18;4;8;1,13797230797;True;right;1,5;0,0;-1;both;0,0
RZN88w;2017-06-01-11-16-18;4;9;0,813405343612;False;right;1,7;0,15;1;both;0,0
RZN88w;2017-06-01-11-16-18;4;10;0,990880801445;True;left;1,7;0,0;-1;both;0,0
RZN88w;2017-06-01-11-16-18;4;11;1,01972544999;False;left;1,3;0,0;-1;both;0,0
RZN88w;2017-06-01-11-16-18;4;12;0,925435281746;True;left;1,1;0,15;-1;both;0,0
RZN88w;2017-06-01-11-16-18;4;13;1,14244320302;False;neither;1,5;0,0;1;both;0,0
RZN88w;2017-06-01-11-16-18;4;14;1,19947875214;True;left;1,9;0,0;-1;both;0,367000102997
RZN88w;2017-06-01-11-16-18;4;15;1,09731064695;False;right;1,1;-0,15;1;both;0,0
RZN88w;2017-06-01-11-16-18;4;16;1,05230843599;True;left;1,7;0,0;-1;both;0,000999927520752
RZN88w;2017-06-01-11-16-18;4;17;0,984538609503;False;neither;1,5;0,15;1;both;0,52799987793
RZN88w;2017-06-01-11-16-18;4;18;0,815407975145;True;left;1,5;0,15;1;both;0,0
RZN88w;2017-06-01-11-16-18;4;19;0,901050480182;False;right;1,1;0,0;-1;both;0,0
RZN88w;2017-06-01-11-16-18;4;20;0,835731805447;True;both;1,1;0,15;-1;left;0,458999872208
RZN88w;2017-06-01-11-16-18;4;21;1,01012360728;False;right;1,7;0,15;-1;both;0,0
RZN88w;2017-06-01-11-16-18;4;22;1,10094220126;True;right;1,9;-0,15;1;both;0,0
RZN88w;2017-06-01-11-16-18;4;23;1,04657541016;False;right;1,9;0,0;-1;both;0,0
RZN88w;2017-06-01-11-16-18;4;24;1,09025928123;True;both;1,7;-0,15;-1;right;0,567000150681
RZN88w;2017-06-01-11-16-18;4;25;0,910216023139;False;left;1,9;0,15;1;both;0,332000017166
RZN88w;2017-06-01-11-16-18;4;26;1,05018551509;True;right;1,1;-0,15;1;both;0,0
RZN88w;2017-06-01-11-16-18;4;27;0,928560871594;False;right;1,5;-0,15;1;both;0,0
RZN88w;2017-06-01-11-16-18;4;28;0,926913505163;True;right;1,7;0,0;-1;both;0,000999927520752
RZN88w;2017-06-01-11-16-18;4;29;1,1340049273;False;right;1,7;-0,15;1;both;0,0
RZN88w;2017-06-01-11-16-18;4;30;1,11717602795;True;both;1,7;0,15;1;left;0,335000038147
RZN88w;2017-06-01-11-16-18;4;31;1,01295300419;False;both;1,9;-0,15;-1;neither;0,0
RZN88w;2017-06-01-11-16-18;4;32;1,0970149692;True;right;1,5;0,15;1;neither;0,0
RZN88w;2017-06-01-11-16-18;4;33;1,09862255411;False;neither;1,3;0,15;1;neither;0,0
RZN88w;2017-06-01-11-16-18;4;34;0,883575654107;True;right;1,1;0,15;-1;neither;0,0
RZN88w;2017-06-01-11-16-18;4;35;1,10894070051;False;both;1,5;-0,15;-1;neither;0,0
RZN88w;2017-06-01-11-16-18;4;36;1,1321163346;True;both;1,9;0,15;-1;neither;0,0
RZN88w;2017-06-01-11-16-18;4;37;0,913314151646;False;right;1,3;0,0;-1;neither;0,0
RZN88w;2017-06-01-11-16-18;4;38;1,00271186352;True;right;1,3;-0,15;1;neither;0,0
RZN88w;2017-06-01-11-16-18;4;39;1,18722913437;False;neither;1,3;0,0;1;neither;0,0
RZN88w;2017-06-01-11-16-18;4;40;0,879680308026;True;right;1,5;0,15;-1;neither;0,380000114441
RZN88w;2017-06-01-11-16-18;4;41;1,02619501488;False;left;1,9;-0,15;1;neither;0,00100016593933
RZN88w;2017-06-01-11-16-18;4;42;0,938288246535;True;left;1,5;-0,15;1;neither;0,0
RZN88w;2017-06-01-11-16-18;4;43;1,07672345605;False;neither;1,1;0,15;-1;neither;0,000999927520752
RZN88w;2017-06-01-11-16-18;4;44;1,11868818657;True;both;1,5;0,15;-1;both;0,0
RZN88w;2017-06-01-11-16-18;4;45;1,19164895456;False;left;1,7;-0,15;-1;both;0,696000099182
RZN88w;2017-06-01-11-16-18;5;1;1,01467781689;True;both;1,5;0,0;-1;neither;0,0
RZN88w;2017-06-01-11-16-18;5;2;0,948892558191;False;both;1,1;0,15;-1;both;0,000999927520752
RZN88w;2017-06-01-11-16-18;5;3;1,06177654348;True;right;1,7;0,15;-1;both;0,0
RZN88w;2017-06-01-11-16-18;5;4;0,807903086472;False;left;1,5;0,0;1;both;0,0
RZN88w;2017-06-01-11-16-18;5;5;0,923655973776;True;both;1,3;-0,15;-1;both;2,19799995422
RZN88w;2017-06-01-11-16-18;5;6;0,840849242786;False;right;1,7;0,0;1;both;0,411000013351
RZN88w;2017-06-01-11-16-18;5;7;1,0784587376;True;both;1,9;-0,15;1;both;0,0
RZN88w;2017-06-01-11-16-18;5;8;0,806430085862;False;left;1,3;0,15;1;right;1,06100010872
RZN88w;2017-06-01-11-16-18;5;9;1,0054435771;True;neither;1,3;0,15;1;right;0,480000019073
RZN88w;2017-06-01-11-16-18;5;10;1,08180923236;False;left;1,1;-0,15;-1;both;0,000999927520752
RZN88w;2017-06-01-11-16-18;5;11;0,951032461288;True;both;1,7;0,15;-1;both;0,0610001087189
RZN88w;2017-06-01-11-16-18;5;12;0,907288934608;False;right;1,5;-0,15;-1;both;0,0
RZN88w;2017-06-01-11-16-18;5;13;0,969510971107;True;right;1,5;0,0;-1;both;0,0
RZN88w;2017-06-01-11-16-18;5;14;0,8891457894;False;left;1,7;0,0;-1;both;0,398000001907
RZN88w;2017-06-01-11-16-18;5;15;0,954318352518;True;neither;1,1;-0,15;-1;both;0,798000097275
RZN88w;2017-06-01-11-16-18;5;16;0,938884432728;False;left;1,3;-0,15;1;right;0,331000089645
RZN88w;2017-06-01-11-16-18;5;17;0,884781784374;True;neither;1,5;-0,15;-1;right;0,0
RZN88w;2017-06-01-11-16-18;5;18;0,98780276992;False;right;1,3;0,15;-1;both;0,0
RZN88w;2017-06-01-11-16-18;5;19;0,909829817018;True;right;1,1;0,0;-1;both;0,225999832153
RZN88w;2017-06-01-11-16-18;5;20;1,04794113698;False;left;1,9;0,15;1;right;0,579999923706
RZN88w;2017-06-01-11-16-18;5;21;1,01106739844;True;right;1,1;0,0;1;both;0,0
RZN88w;2017-06-01-11-16-18;5;22;0,833728830785;False;left;1,9;0,15;-1;right;0,457999944687
RZN88w;2017-06-01-11-16-18;5;23;1,12901117645;True;left;1,9;-0,15;-1;right;0,370000123978
RZN88w;2017-06-01-11-16-18;5;24;1,09293124075;False;neither;1,9;-0,15;1;right;0,161999940872
RZN88w;2017-06-01-11-16-18;5;25;0,862419279888;True;left;1,1;0,15;-1;both;0,0
RZN88w;2017-06-01-11-16-18;5;26;0,864524504498;False;left;1,5;0,15;1;both;0,0
RZN88w;2017-06-01-11-16-18;5;27;1,10146841149;True;neither;1,3;-0,15;1;neither;4,35500001907
RZN88w;2017-06-01-11-16-18;5;28;1,03772528152;False;left;1,5;-0,15;1;neither;1,6210000515
RZN88w;2017-06-01-11-16-18;5;29;0,927321474851;True;right;1,7;-0,15;-1;neither;1,12199997902
RZN88w;2017-06-01-11-16-18;5;30;1,18059367338;False;right;1,9;-0,15;-1;right;0,0
RZN88w;2017-06-01-11-16-18;5;31;1,05251075175;True;right;1,3;0,0;1;both;0,0
RZN88w;2017-06-01-11-16-18;5;32;0,998489131728;False;both;1,7;0,0;-1;neither;0,0
RZN88w;2017-06-01-11-16-18;5;33;1,18667694536;True;left;1,5;0,0;1;both;0,0870001316071
RZN88w;2017-06-01-11-16-18;5;34;1,069910562;False;left;1,9;0,0;-1;both;0,0
RZN88w;2017-06-01-11-16-18;5;35;0,948300908608;True;right;1,5;0,15;-1;both;0,0
RZN88w;2017-06-01-11-16-18;5;36;0,956768640916;False;both;1,5;0,15;1;both;0,0970001220703
RZN88w;2017-06-01-11-16-18;5;37;1,15430074257;True;left;1,1;0,0;1;both;1,10800004005
RZN88w;2017-06-01-11-16-18;5;38;0,822971758404;False;neither;1,7;-0,15;1;both;0,864000082016
RZN88w;2017-06-01-11-16-18;5;39;1,02221073091;True;left;1,1;-0,15;1;both;0,0
RZN88w;2017-06-01-11-16-18;5;40;1,13087756451;False;neither;1,1;0,15;-1;both;0,0
RZN88w;2017-06-01-11-16-18;5;41;0,935147459879;True;right;1,9;0,0;1;neither;0,802999973297
RZN88w;2017-06-01-11-16-18;5;42;0,961996168315;False;neither;1,3;0,0;1;right;0,430999994278
RZN88w;2017-06-01-11-16-18;5;43;0,956914099293;True;neither;1,7;0,0;1;both;1,39499998093
RZN88w;2017-06-01-11-16-18;5;44;1,04817657069;False;neither;1,7;0,15;1;right;0,0
RZN88w;2017-06-01-11-16-18;5;45;1,01246178515;True;both;1,9;0,15;1;both;1,19000005722
RZN88w;2017-06-01-11-16-18;6;1;0,884274021013;False;both;1,5;0,0;1;both;0,0
RZN88w;2017-06-01-11-16-18;6;2;1,05387769756;True;both;1,1;0,15;1;both;0,0
RZN88w;2017-06-01-11-16-18;6;3;1,04545919322;False;right;1,7;0,15;-1;both;0,0
RZN88w;2017-06-01-11-16-18;6;4;1,18568653553;True;left;1,5;0,0;1;both;0,0
RZN88w;2017-06-01-11-16-18;6;5;0,966462462088;False;both;1,3;-0,15;1;both;0,0
RZN88w;2017-06-01-11-16-18;6;6;1,00925674015;True;right;1,7;0,0;-1;both;0,0
RZN88w;2017-06-01-11-16-18;6;7;0,958086210035;False;both;1,9;-0,15;-1;both;0,0
RZN88w;2017-06-01-11-16-18;6;8;0,931443073271;True;left;1,3;0,15;1;both;0,0
RZN88w;2017-06-01-11-16-18;6;9;0,98837167021;False;neither;1,3;0,15;1;right;0,496999979019
RZN88w;2017-06-01-11-16-18;6;10;0,937449402403;True;left;1,1;-0,15;-1;both;0,000999927520752
RZN88w;2017-06-01-11-16-18;6;11;1,17861250971;False;both;1,7;0,15;1;both;0,179000139236
RZN88w;2017-06-01-11-16-18;6;12;0,978243958943;True;right;1,5;-0,15;1;right;0,581000089645
RZN88w;2017-06-01-11-16-18;6;13;1,04647107459;False;right;1,5;0,0;1;both;0,832000017166
RZN88w;2017-06-01-11-16-18;6;14;0,899758888617;True;left;1,7;0,0;-1;both;0,253999948502
RZN88w;2017-06-01-11-16-18;6;15;1,13938213114;False;neither;1,1;-0,15;-1;right;0,0
RZN88w;2017-06-01-11-16-18;6;16;0,996371432136;True;left;1,3;-0,15;-1;both;0,0
RZN88w;2017-06-01-11-16-18;6;17;0,978537222089;False;neither;1,5;-0,15;-1;right;0,326999902725
RZN88w;2017-06-01-11-16-18;6;18;1,17389883805;True;right;1,3;0,15;-1;both;0,0
RZN88w;2017-06-01-11-16-18;6;19;0,989509265746;False;right;1,1;0,0;1;both;0,0
RZN88w;2017-06-01-11-16-18;6;20;0,93951543464;True;left;1,9;0,15;1;both;0,0
RZN88w;2017-06-01-11-16-18;6;21;1,11312735625;False;right;1,1;0,0;-1;both;0,0
RZN88w;2017-06-01-11-16-18;6;22;1,17046433796;True;left;1,9;0,15;-1;both;0,00100016593933
RZN88w;2017-06-01-11-16-18;6;23;1,02346009137;False;left;1,9;-0,15;-1;both;0,0
RZN88w;2017-06-01-11-16-18;6;24;0,928742380577;True;neither;1,9;-0,15;-1;right;0,436000108719
RZN88w;2017-06-01-11-16-18;6;25;1,02664528754;False;left;1,1;0,15;-1;right;0,0
RZN88w;2017-06-01-11-16-18;6;26;0,923336755879;True;left;1,5;0,15;1;both;0,0
RZN88w;2017-06-01-11-16-18;6;27;1,17025547415;False;neither;1,3;-0,15;1;right;0,407999992371
RZN88w;2017-06-01-11-16-18;6;28;0,839782383297;True;left;1,5;-0,15;1;both;0,0480000972748
RZN88w;2017-06-01-11-16-18;6;29;0,942603241142;False;right;1,7;-0,15;-1;both;0,0
RZN88w;2017-06-01-11-16-18;6;30;0,842419227837;True;right;1,9;-0,15;1;right;0,31500005722
RZN88w;2017-06-01-11-16-18;6;31;1,15976197683;False;right;1,3;0,0;1;both;0,0
RZN88w;2017-06-01-11-16-18;6;32;1,05205637461;True;both;1,7;0,0;-1;both;0,0
RZN88w;2017-06-01-11-16-18;6;33;0,985507410602;False;left;1,5;0,0;1;both;0,0
RZN88w;2017-06-01-11-16-18;6;34;0,930783928941;True;left;1,9;0,0;1;both;0,516999959946
RZN88w;2017-06-01-11-16-18;6;35;0,871671998805;False;right;1,5;0,15;1;both;0,0
RZN88w;2017-06-01-11-16-18;6;36;1,10543206305;True;both;1,5;0,15;-1;both;0,0
RZN88w;2017-06-01-11-16-18;6;37;0,844287295813;False;left;1,1;0,0;-1;both;0,000999927520752
RZN88w;2017-06-01-11-16-18;6;38;0,879013096508;True;neither;1,7;-0,15;-1;right;0,0
RZN88w;2017-06-01-11-16-18;6;39;0,87555282458;False;left;1,1;-0,15;-1;both;0,0
RZN88w;2017-06-01-11-16-18;6;40;1,06451011347;True;neither;1,1;0,15;1;both;0,299999952316
RZN88w;2017-06-01-11-16-18;6;41;0,869231698801;False;right;1,9;0,0;1;both;0,0
RZN88w;2017-06-01-11-16-18;6;42;0,857987864539;True;neither;1,3;0,0;1;both;0,0889999866486
RZN88w;2017-06-01-11-16-18;6;43;0,931008690212;False;neither;1,7;0,0;1;both;0,0
RZN88w;2017-06-01-11-16-18;6;44;0,941612233768;True;neither;1,7;0,15;1;right;0,506000041962
RZN88w;2017-06-01-11-16-18;6;45;0,981935631333;False;both;1,9;0,15;-1;both;0,546000003815
RZN88w;2017-06-01-11-16-18;7;1;1,10695074365;True;both;1,7;-0,15;-1;both;0,671000003815
RZN88w;2017-06-01-11-16-18;7;2;1,12419593972;False;left;1,5;-0,15;1;neither;0,213000059128
RZN88w;2017-06-01-11-16-18;7;3;0,944818185351;True;both;1,9;-0,15;-1;neither;0,0
RZN88w;2017-06-01-11-16-18;7;4;1,12256895027;False;right;1,9;0,0;-1;neither;0,0
RZN88w;2017-06-01-11-16-18;7;5;0,984775636505;True;both;1,3;-0,15;-1;neither;0,0
RZN88w;2017-06-01-11-16-18;7;6;0,853403761896;False;left;1,3;0,15;1;neither;0,0
RZN88w;2017-06-01-11-16-18;7;7;0,896587916524;True;both;1,3;0,0;-1;both;0,0
RZN88w;2017-06-01-11-16-18;7;8;1,16556555683;False;neither;1,3;-0,15;1;neither;0,0
RZN88w;2017-06-01-11-16-18;7;9;0,82169782716;True;right;1,3;0,15;-1;both;0,0
RZN88w;2017-06-01-11-16-18;7;10;1,05492894908;False;both;1,9;0,0;-1;both;0,0999999046326
RZN88w;2017-06-01-11-16-18;7;11;1,05634334564;True;right;1,1;-0,15;1;both;0,0
RZN88w;2017-06-01-11-16-18;7;12;0,901059631135;False;neither;1,3;0,0;-1;right;0,604000091553
RZN88w;2017-06-01-11-16-18;7;13;0,818139385886;True;right;1,7;0,0;-1;right;0,194000005722
RZN88w;2017-06-01-11-16-18;7;14;1,00181168825;False;both;1,5;0,0;-1;both;0,0
RZN88w;2017-06-01-11-16-18;7;15;1,14080417774;True;right;1,3;0,15;-1;right;0,345999956131
RZN88w;2017-06-01-11-16-18;7;16;0,953070164773;False;neither;1,9;-0,15;1;right;0,0
RZN88w;2017-06-01-11-16-18;7;17;0,971741718877;True;right;1,1;-0,15;1;right;0,0
RZN88w;2017-06-01-11-16-18;7;18;1,16569603005;False;left;1,7;0,0;1;right;0,0
RZN88w;2017-06-01-11-16-18;7;19;1,19919376494;True;right;1,1;0,0;1;both;0,0
RZN88w;2017-06-01-11-16-18;7;20;1,02028296122;False;right;1,9;0,15;-1;right;0,0
RZN88w;2017-06-01-11-16-18;7;21;1,17478756396;True;right;1,9;0,0;-1;right;1,42100000381
RZN88w;2017-06-01-11-16-18;7;22;1,08871103997;False;left;1,9;0,15;1;both;0,0
RZN88w;2017-06-01-11-16-18;7;23;1,03119503501;True;right;1,7;0,15;-1;both;0,0
RZN88w;2017-06-01-11-16-18;7;24;1,19971331222;False;left;1,5;-0,15;-1;both;0,0
RZN88w;2017-06-01-11-16-18;7;25;0,881377768711;True;right;1,7;0,15;-1;right;0,521999835968
RZN88w;2017-06-01-11-16-18;7;26;0,815763253977;False;neither;1,1;0,0;-1;right;0,484999895096
RZN88w;2017-06-01-11-16-18;7;27;1,10846801799;True;neither;1,1;0,15;1;right;0,0
RZN88w;2017-06-01-11-16-18;7;28;1,03223786816;False;right;1,5;0,0;-1;right;0,0
RZN88w;2017-06-01-11-16-18;7;29;1,03441118228;True;left;1,7;-0,15;1;both;0,124000072479
RZN88w;2017-06-01-11-16-18;7;30;0,940945978461;False;right;1,9;0,15;-1;both;0,473000049591
RZN88w;2017-06-01-11-16-18;7;31;0,831815919423;True;both;1,5;0,15;-1;both;0,0
RZN88w;2017-06-01-11-16-18;7;32;0,856628948173;False;right;1,7;-0,15;1;both;0,569000005722
RZN88w;2017-06-01-11-16-18;7;33;0,812561754762;True;left;1,3;0,0;1;both;0,0
RZN88w;2017-06-01-11-16-18;7;34;1,1322592115;False;left;1,1;0,15;-1;both;0,0
RZN88w;2017-06-01-11-16-18;7;35;0,936069304307;True;left;1,5;0,0;-1;both;0,0
RZN88w;2017-06-01-11-16-18;7;36;1,01636192721;False;left;1,5;0,0;1;both;0,0
RZN88w;2017-06-01-11-16-18;7;37;1,18254063792;True;left;1,5;0,15;-1;both;0,0
RZN88w;2017-06-01-11-16-18;7;38;0,83001027357;False;right;1,3;-0,15;-1;neither;0,0
RZN88w;2017-06-01-11-16-18;7;39;1,04966938312;True;both;1,1;-0,15;1;neither;0,0
RZN88w;2017-06-01-11-16-18;7;40;0,91084304797;False;left;1,9;0,0;-1;neither;0,0
RZN88w;2017-06-01-11-16-18;7;41;0,989424160248;True;right;1,9;-0,15;-1;neither;0,0
RZN88w;2017-06-01-11-16-18;7;42;1,19440033183;False;neither;1,1;-0,15;1;neither;0,0
RZN88w;2017-06-01-11-16-18;7;43;1,01677482032;True;left;1,5;0,15;1;right;0,0
RZN88w;2017-06-01-11-16-18;7;44;0,928848394489;False;both;1,3;0,15;1;both;0,0
RZN88w;2017-06-01-11-16-18;7;45;0,866404069046;True;both;1,9;0,15;1;right;0,0980000495911
RZN88w;2017-06-01-11-16-18;8;1;0,961705925522;False;both;1,7;-0,15;-1;both;0,0
RZN88w;2017-06-01-11-16-18;8;2;1,08865115785;True;left;1,5;-0,15;-1;both;0,542000055313
RZN88w;2017-06-01-11-16-18;8;3;0,847048160452;False;both;1,9;-0,15;1;both;0,0
RZN88w;2017-06-01-11-16-18;8;4;1,05552114524;True;right;1,9;0,0;1;both;0,0
RZN88w;2017-06-01-11-16-18;8;5;0,890204176605;False;both;1,3;-0,15;-1;both;0,0
RZN88w;2017-06-01-11-16-18;8;6;0,925555766625;True;left;1,3;0,15;-1;both;0,0
RZN88w;2017-06-01-11-16-18;8;7;1,11826772221;False;both;1,3;0,0;-1;both;0,0
RZN88w;2017-06-01-11-16-18;8;8;0,833761877507;True;neither;1,3;-0,15;1;right;0,0679998397827
RZN88w;2017-06-01-11-16-18;8;9;1,02271882679;False;right;1,3;0,15;-1;both;0,0
RZN88w;2017-06-01-11-16-18;8;10;1,07265894955;True;both;1,9;0,0;1;both;0,160000085831
RZN88w;2017-06-01-11-16-18;8;11;0,930606783365;False;right;1,1;-0,15;1;both;0,0
RZN88w;2017-06-01-11-16-18;8;12;0,972959162581;True;neither;1,3;0,0;1;both;0,0
RZN88w;2017-06-01-11-16-18;8;13;1,00797006463;False;right;1,7;0,0;1;both;0,0
RZN88w;2017-06-01-11-16-18;8;14;1,03315857962;True;both;1,5;0,0;1;both;0,0
RZN88w;2017-06-01-11-16-18;8;15;0,935260892231;False;right;1,3;0,15;-1;both;0,0
RZN88w;2017-06-01-11-16-18;8;16;1,11270441116;True;neither;1,9;-0,15;1;neither;0,0
RZN88w;2017-06-01-11-16-18;8;17;1,16594455167;False;right;1,1;-0,15;-1;both;0,0
RZN88w;2017-06-01-11-16-18;8;18;1,18024749546;True;left;1,7;0,0;-1;both;0,0
RZN88w;2017-06-01-11-16-18;8;19;1,0120011321;False;right;1,1;0,0;1;both;0,000999927520752
RZN88w;2017-06-01-11-16-18;8;20;1,04364352002;True;right;1,9;0,15;1;right;0,0
RZN88w;2017-06-01-11-16-18;8;21;1,13060648568;False;right;1,9;0,0;-1;right;0,344000101089
RZN88w;2017-06-01-11-16-18;8;22;1,0168146598;True;left;1,9;0,15;-1;right;0,52899980545
RZN88w;2017-06-01-11-16-18;8;23;0,872857989412;False;right;1,7;0,15;1;right;0,456000089645
RZN88w;2017-06-01-11-16-18;8;24;1,10496184391;True;left;1,5;-0,15;1;right;0,585999965668
RZN88w;2017-06-01-11-16-18;8;25;0,853039164986;False;right;1,7;0,15;1;right;0,482000112534
RZN88w;2017-06-01-11-16-18;8;26;1,11757349684;True;neither;1,1;0,0;-1;right;0,000999927520752
RZN88w;2017-06-01-11-16-18;8;27;0,869990552336;False;neither;1,1;0,15;-1;right;0,0
RZN88w;2017-06-01-11-16-18;8;28;1,06427448192;True;right;1,5;0,0;-1;both;0,0
RZN88w;2017-06-01-11-16-18;8;29;0,806329887341;False;left;1,7;-0,15;-1;both;0,0
RZN88w;2017-06-01-11-16-18;8;30;0,974695869106;True;right;1,9;0,15;1;both;0,0
RZN88w;2017-06-01-11-16-18;8;31;0,804555847478;False;both;1,5;0,15;1;both;0,0
RZN88w;2017-06-01-11-16-18;8;32;1,04766883368;True;right;1,7;-0,15;-1;neither;0,0
RZN88w;2017-06-01-11-16-18;8;33;0,933813496864;False;left;1,3;0,0;1;right;0,476999998093
RZN88w;2017-06-01-11-16-18;8;34;0,976044420313;True;left;1,1;0,15;1;both;0,0
RZN88w;2017-06-01-11-16-18;8;35;1,09576075882;False;left;1,5;0,0;-1;both;0,0
RZN88w;2017-06-01-11-16-18;8;36;0,87820820878;True;left;1,5;0,0;1;both;0,0
RZN88w;2017-06-01-11-16-18;8;37;1,13625314384;False;left;1,5;0,15;1;right;0,322999954224
RZN88w;2017-06-01-11-16-18;8;38;0,955339226158;True;right;1,3;-0,15;1;both;0,0
RZN88w;2017-06-01-11-16-18;8;39;1,13735334015;False;both;1,1;-0,15;1;right;23,4619998932
RZN88w;2017-06-01-11-16-18;8;40;1,16030706259;True;left;1,9;0,0;-1;both;0,744999885559
RZN88w;2017-06-01-11-16-18;8;41;0,834998875677;False;right;1,9;-0,15;1;both;0,0
RZN88w;2017-06-01-11-16-18;8;42;1,18755896185;True;neither;1,1;-0,15;1;right;0,375999927521
RZN88w;2017-06-01-11-16-18;8;43;1,1650369023;False;left;1,5;0,15;-1;both;0,442000150681
RZN88w;2017-06-01-11-16-18;8;44;1,18437491219;True;both;1,3;0,15;-1;both;0,0
RZN88w;2017-06-01-11-16-18;8;45;0,896610981285;False;both;1,9;0,15;-1;neither;0,320999860764
RZN88w;2017-06-01-11-16-18;9;1;1,03956296082;True;right;1,1;0,15;1;both;0,0
RZN88w;2017-06-01-11-16-18;9;2;1,01961581123;False;neither;1,3;0,0;1;both;0,348999977112
RZN88w;2017-06-01-11-16-18;9;3;0,879956495481;True;neither;1,5;0,0;-1;both;0,383000135422
RZN88w;2017-06-01-11-16-18;9;4;1,04622126715;False;both;1,3;0,0;-1;both;0,0
RZN88w;2017-06-01-11-16-18;9;5;1,12140073003;True;right;1,7;-0,15;1;both;0,0
RZN88w;2017-06-01-11-16-18;9;6;0,965564683122;False;left;1,5;-0,15;-1;both;0,0
RZN88w;2017-06-01-11-16-18;9;7;1,12868061713;True;left;1,7;-0,15;1;both;0,0
RZN88w;2017-06-01-11-16-18;9;8;0,907323374068;False;right;1,1;0,0;1;neither;0,0
RZN88w;2017-06-01-11-16-18;9;9;1,08204856563;True;both;1,9;0,0;-1;neither;0,0
RZN88w;2017-06-01-11-16-18;9;10;0,83705584666;False;left;1,3;0,15;-1;both;0,0
RZN88w;2017-06-01-11-16-18;9;11;0,988380165167;True;right;1,9;-0,15;-1;right;0,22200012207
RZN88w;2017-06-01-11-16-18;9;12;0,823957784823;False;right;1,7;0,15;1;right;1,06299996376
RZN88w;2017-06-01-11-16-18;9;13;1,18487192715;True;left;1,5;0,15;1;right;0,373999834061
RZN88w;2017-06-01-11-16-18;9;14;1,18912010057;False;left;1,3;-0,15;1;both;0,0
RZN88w;2017-06-01-11-16-18;9;15;1,01096713589;True;right;1,7;-0,15;-1;both;0,0
RZN88w;2017-06-01-11-16-18;9;16;0,965688485897;False;right;1,5;0,15;1;both;0,0
RZN88w;2017-06-01-11-16-18;9;17;0,919586251442;True;right;1,3;-0,15;-1;neither;0,0
RZN88w;2017-06-01-11-16-18;9;18;1,10020964187;False;both;1,7;0,0;1;both;0,0
RZN88w;2017-06-01-11-16-18;9;19;0,899241880232;True;left;1,7;0,0;-1;both;0,163000106812
RZN88w;2017-06-01-11-16-18;9;20;0,888490767051;False;neither;1,7;0,15;1;right;0,303999900818
RZN88w;2017-06-01-11-16-18;9;21;1,12781670765;True;left;1,5;0,0;1;both;0,0
RZN88w;2017-06-01-11-16-18;9;22;0,815943264828;False;both;1,9;-0,15;-1;both;0,0
RZN88w;2017-06-01-11-16-18;9;23;1,03731019275;True;left;1,3;0,0;1;both;0,0
RZN88w;2017-06-01-11-16-18;9;24;1,0395643693;False;right;1,3;0,0;-1;both;0,0
RZN88w;2017-06-01-11-16-18;9;25;1,05013749501;True;left;1,1;-0,15;1;both;0,0
RZN88w;2017-06-01-11-16-18;9;26;0,833151475553;False;left;1,9;0,0;-1;both;0,000999927520752
RZN88w;2017-06-01-11-16-18;9;27;1,15447547792;True;right;1,7;0,15;1;both;0,0
RZN88w;2017-06-01-11-16-18;9;28;1,12202921499;False;both;1,1;0,15;-1;both;0,0
RZN88w;2017-06-01-11-16-18;9;29;1,13293019858;True;left;1,1;-0,15;1;both;0,0
RZN88w;2017-06-01-11-16-18;9;30;1,02785007933;False;left;1,7;0,15;-1;both;0,000999927520752
RZN88w;2017-06-01-11-16-18;9;31;1,07448676845;True;left;1,1;0,0;-1;both;0,0
RZN88w;2017-06-01-11-16-18;9;32;1,11059217853;False;both;1,3;-0,15;1;both;0,0
RZN88w;2017-06-01-11-16-18;9;33;0,910298568462;True;left;1,5;0,0;1;both;0,0
RZN88w;2017-06-01-11-16-18;9;34;1,08728578158;False;right;1,5;0,0;1;both;0,0
RZN88w;2017-06-01-11-16-18;9;35;1,12808465847;True;neither;1,9;0,0;1;right;0,865999937057
RZN88w;2017-06-01-11-16-18;9;36;0,95945911801;False;right;1,1;0,15;-1;both;0,0
RZN88w;2017-06-01-11-16-18;9;37;0,961614670605;True;right;1,7;0,0;1;both;0,90499997139
RZN88w;2017-06-01-11-16-18;9;38;1,1824430587;False;neither;1,7;0,0;-1;left;1,56699991226
RZN88w;2017-06-01-11-16-18;9;39;0,856920629237;True;neither;1,9;-0,15;-1;neither;0,0
RZN88w;2017-06-01-11-16-18;9;40;1,13230881147;False;left;1,7;0,0;-1;both;0,319000005722
RZN88w;2017-06-01-11-16-18;9;41;1,10184772077;True;neither;1,3;-0,15;1;neither;0,0
RZN88w;2017-06-01-11-16-18;9;42;1,04669860574;False;right;1,5;-0,15;1;neither;0,180999994278
RZN88w;2017-06-01-11-16-18;9;43;0,95804132656;True;left;1,5;0,15;1;right;0,0
RZN88w;2017-06-01-11-16-18;9;44;0,954947846601;False;left;1,3;-0,15;1;both;0,842000007629
RZN88w;2017-06-01-11-16-18;9;45;1,02491237606;True;right;1,1;-0,15;1;both;0,0
RZN88w;2017-06-01-11-16-18;10;1;0,903805274779;False;right;1,1;0,15;-1;both;0,0
RZN88w;2017-06-01-11-16-18;10;2;1,06293608757;True;neither;1,3;0,0;-1;right;2,21099996567
RZN88w;2017-06-01-11-16-18;10;3;0,933163461992;False;neither;1,5;0,0;1;right;0,0
RZN88w;2017-06-01-11-16-18;10;4;0,846422657222;True;both;1,3;0,0;-1;right;0,000999927520752
RZN88w;2017-06-01-11-16-18;10;5;0,952651473912;False;right;1,7;-0,15;1;right;0,0
RZN88w;2017-06-01-11-16-18;10;6;0,869182811381;True;left;1,5;-0,15;-1;both;0,0
RZN88w;2017-06-01-11-16-18;10;7;0,913369924937;False;left;1,7;-0,15;1;neither;0,0
RZN88w;2017-06-01-11-16-18;10;8;0,911466044656;True;right;1,1;0,0;1;both;0,0
RZN88w;2017-06-01-11-16-18;10;9;1,02425888233;False;both;1,9;0,0;-1;both;0,0
RZN88w;2017-06-01-11-16-18;10;10;1,06937741716;True;left;1,3;0,15;1;both;0,0
RZN88w;2017-06-01-11-16-18;10;11;1,01870027203;False;right;1,9;-0,15;-1;both;0,0
RZN88w;2017-06-01-11-16-18;10;12;1,17047324245;True;right;1,7;0,15;1;both;0,0
RZN88w;2017-06-01-11-16-18;10;13;0,906019468051;False;left;1,5;0,15;1;both;0,396000146866
RZN88w;2017-06-01-11-16-18;10;14;1,01222530758;True;left;1,3;-0,15;-1;both;0,0
RZN88w;2017-06-01-11-16-18;10;15;1,00930545325;False;right;1,7;-0,15;1;both;0,0
RZN88w;2017-06-01-11-16-18;10;16;1,19693663473;True;right;1,5;0,15;1;right;0,0
RZN88w;2017-06-01-11-16-18;10;17;0,966300348855;False;right;1,3;-0,15;-1;both;0,0
RZN88w;2017-06-01-11-16-18;10;18;0,854329187407;True;both;1,7;0,0;-1;neither;0,000999927520752
RZN88w;2017-06-01-11-16-18;10;19;1,08344945147;False;left;1,7;0,0;-1;neither;0,0
RZN88w;2017-06-01-11-16-18;10;20;1,197640863;True;neither;1,7;0,15;1;right;0,65700006485
RZN88w;2017-06-01-11-16-18;10;21;0,88275198504;False;left;1,5;0,0;-1;neither;0,296000003815
RZN88w;2017-06-01-11-16-18;10;22;0,997092997664;True;both;1,9;-0,15;1;right;1,13399982452
RZN88w;2017-06-01-11-16-18;10;23;1,06797426484;False;left;1,3;0,0;1;right;0,398999929428
RZN88w;2017-06-01-11-16-18;10;24;1,00900554898;True;right;1,3;0,0;-1;both;0,0
RZN88w;2017-06-01-11-16-18;10;25;0,94888636009;False;left;1,1;-0,15;-1;right;0,848999977112
RZN88w;2017-06-01-11-16-18;10;26;1,19092906811;True;left;1,9;0,0;1;right;0,0
RZN88w;2017-06-01-11-16-18;10;27;1,17723745639;False;right;1,7;0,15;1;both;0,0
RZN88w;2017-06-01-11-16-18;10;28;1,07401398093;True;both;1,1;0,15;1;both;0,0
RZN88w;2017-06-01-11-16-18;10;29;1,13560421058;False;left;1,1;-0,15;1;right;0,897000074387
RZN88w;2017-06-01-11-16-18;10;30;0,990112384521;True;left;1,7;0,15;-1;both;0,0
RZN88w;2017-06-01-11-16-18;10;31;1,17518390156;False;left;1,1;0,0;1;both;0,0
RZN88w;2017-06-01-11-16-18;10;32;1,03352866077;True;both;1,3;-0,15;1;both;0,0
RZN88w;2017-06-01-11-16-18;10;33;0,815581751534;False;left;1,5;0,0;-1;both;0,0
RZN88w;2017-06-01-11-16-18;10;34;1,05658564506;True;right;1,5;0,0;-1;both;0,0
RZN88w;2017-06-01-11-16-18;10;35;1,01883129353;False;neither;1,9;0,0;-1;right;0,0
RZN88w;2017-06-01-11-16-18;10;36;0,932324680249;True;right;1,1;0,15;1;both;0,0
RZN88w;2017-06-01-11-16-18;10;37;1,05642954549;False;right;1,7;0,0;-1;both;0,0
RZN88w;2017-06-01-11-16-18;10;38;1,19887868529;True;neither;1,7;0,0;-1;right;0,299999952316
RZN88w;2017-06-01-11-16-18;10;39;0,805873205052;False;neither;1,9;-0,15;1;right;0,171000003815
RZN88w;2017-06-01-11-16-18;10;40;1,15264946922;True;left;1,7;0,0;-1;both;0,000999927520752
RZN88w;2017-06-01-11-16-18;10;41;1,10941069444;False;neither;1,3;-0,15;1;both;0,0
RZN88w;2017-06-01-11-16-18;10;42;0,840119259862;True;right;1,5;-0,15;-1;both;0,0
RZN88w;2017-06-01-11-16-18;10;43;1,17346915898;False;left;1,5;0,15;1;both;0,000999927520752
RZN88w;2017-06-01-11-16-18;10;44;0,994117436821;True;left;1,3;-0,15;1;both;0,0
RZN88w;2017-06-01-11-16-18;10;45;0,828747529178;False;right;1,1;-0,15;-1;both;0,0
