Observer;SessionID;Block;Trial;OnsetDelay;Yellow;Switch;SwitchTime;Gap;Direction;Response;RT
SBS92w;2017-06-02-09-17-56;1;1;0,814784877318;False;left;1,7;-0,15;1;both;0,482000112534
SBS92w;2017-06-02-09-17-56;1;2;0,907948289109;True;right;1,9;0,15;1;neither;1,2619998455
SBS92w;2017-06-02-09-17-56;1;3;0,810881428197;False;left;1,7;0,15;1;left;0,424000024796
SBS92w;2017-06-02-09-17-56;1;4;1,17755834447;True;left;1,5;-0,15;-1;left;0,653000116348
SBS92w;2017-06-02-09-17-56;1;5;1,10546346122;False;right;1,1;-0,15;1;right;0,586000204086
SBS92w;2017-06-02-09-17-56;1;6;0,935870799603;True;left;1,7;-0,15;1;neither;0,77999997139
SBS92w;2017-06-02-09-17-56;1;7;0,814327592692;False;neither;1,5;-0,15;1;neither;0,536999940872
SBS92w;2017-06-02-09-17-56;1;8;1,16057219341;True;right;1,7;0,15;1;neither;0,636000156403
SBS92w;2017-06-02-09-17-56;1;9;1,04625359711;False;both;1,1;0,15;-1;right;1,19199991226
SBS92w;2017-06-02-09-17-56;1;10;1,1080559414;True;left;1,9;0,0;-1;left;1,12300014496
SBS92w;2017-06-02-09-17-56;1;11;1,07341932239;False;both;1,1;0,0;1;neither;1,12199997902
SBS92w;2017-06-02-09-17-56;1;12;0,919195922578;True;right;1,7;0,15;1;neither;0,891999959946
SBS92w;2017-06-02-09-17-56;1;13;1,07182264528;False;both;1,3;0,0;1;both;1,00699996948
SBS92w;2017-06-02-09-17-56;1;14;0,982563358102;True;left;1,3;0,0;-1;neither;1,29399991035
SBS92w;2017-06-02-09-17-56;1;15;1,00414734119;False;left;1,1;0,0;1;left;0,860000133514
SBS92w;2017-06-02-09-17-56;1;16;0,945010118063;True;both;1,3;0,15;1;neither;0,932999849319
SBS92w;2017-06-02-09-17-56;1;17;1,07725228783;False;both;1,5;0,0;1;neither;0,789000034332
SBS92w;2017-06-02-09-17-56;1;18;0,930826160107;True;right;1,5;0,0;1;neither;0,740000009537
SBS92w;2017-06-02-09-17-56;1;19;1,10845840854;False;right;1,7;0,0;-1;both;0,858999967575
SBS92w;2017-06-02-09-17-56;1;20;0,904649809309;True;left;1,3;-0,15;1;left;1,08999991417
SBS92w;2017-06-02-09-17-56;1;21;0,849572983483;False;left;1,9;-0,15;1;left;1,22099995613
SBS92w;2017-06-02-09-17-56;1;22;1,06898027923;True;right;1,9;0,15;-1;right;1,45200014114
SBS92w;2017-06-02-09-17-56;1;23;0,918084619423;False;neither;1,7;0,0;-1;left;0,763999938965
SBS92w;2017-06-02-09-17-56;1;24;0,835556505722;True;left;1,3;0,15;1;both;1,09700012207
SBS92w;2017-06-02-09-17-56;1;25;1,13103841142;False;neither;1,7;-0,15;1;neither;0,911000013351
SBS92w;2017-06-02-09-17-56;1;26;0,956439759623;True;both;1,3;-0,15;1;left;0,43700003624
SBS92w;2017-06-02-09-17-56;1;27;1,15494551311;False;left;1,7;0,0;1;left;0,401000022888
SBS92w;2017-06-02-09-17-56;1;28;0,907927748123;True;right;1,5;-0,15;1;neither;0,56500005722
SBS92w;2017-06-02-09-17-56;1;29;1,18889648165;False;both;1,9;0,0;-1;both;0,964999914169
SBS92w;2017-06-02-09-17-56;1;30;0,89934049007;True;neither;1,1;-0,15;-1;neither;0,889000177383
SBS92w;2017-06-02-09-17-56;1;31;1,02726542994;False;right;1,9;0,0;-1;left;1,31999993324
SBS92w;2017-06-02-09-17-56;1;32;0,952837354544;True;left;1,9;0,0;-1;neither;2,05999994278
SBS92w;2017-06-02-09-17-56;1;33;1,02129127256;False;neither;1,5;0,0;-1;neither;0,712999820709
SBS92w;2017-06-02-09-17-56;1;34;1,11984145936;True;left;1,5;0,15;1;neither;0,924000024796
SBS92w;2017-06-02-09-17-56;1;35;0,905229729273;False;right;1,1;0,0;-1;neither;0,751999855042
SBS92w;2017-06-02-09-17-56;1;36;1,03716615006;True;right;1,1;0,15;1;neither;0,656999826431
SBS92w;2017-06-02-09-17-56;1;37;0,8647979523;False;neither;1,5;0,15;1;neither;0,68700003624
SBS92w;2017-06-02-09-17-56;1;38;0,945672506006;True;both;1,1;-0,15;-1;neither;0,524999856949
SBS92w;2017-06-02-09-17-56;1;39;0,87573461022;False;right;1,9;-0,15;-1;neither;0,623000144958
SBS92w;2017-06-02-09-17-56;1;40;0,891013953771;True;left;1,1;0,15;1;left;0,447000026703
SBS92w;2017-06-02-09-17-56;1;41;1,03270395064;False;left;1,5;0,0;-1;left;0,68700003624
SBS92w;2017-06-02-09-17-56;1;42;0,944731666073;True;left;1,9;-0,15;1;left;0,539999961853
SBS92w;2017-06-02-09-17-56;1;43;1,14831852512;False;left;1,1;-0,15;-1;both;0,861999988556
SBS92w;2017-06-02-09-17-56;1;44;1,11343782155;True;left;1,5;0,15;1;neither;1,20199990273
SBS92w;2017-06-02-09-17-56;1;45;1,02820897869;False;neither;1,3;0,0;-1;neither;0,664000034332
SBS92w;2017-06-02-09-17-56;2;1;0,84971271546;True;left;1,7;-0,15;1;both;0,637000083923
SBS92w;2017-06-02-09-17-56;2;2;1,09157169574;False;right;1,9;0,15;-1;neither;0,551999807358
SBS92w;2017-06-02-09-17-56;2;3;1,14131351739;True;left;1,7;0,15;-1;left;0,65299987793
SBS92w;2017-06-02-09-17-56;2;4;1,16393631733;False;left;1,5;-0,15;-1;both;0,626999855042
SBS92w;2017-06-02-09-17-56;2;5;0,854318690541;True;right;1,1;-0,15;1;neither;0,723999977112
SBS92w;2017-06-02-09-17-56;2;6;1,02776957238;False;left;1,7;-0,15;-1;both;0,394999980927
SBS92w;2017-06-02-09-17-56;2;7;1,18221352802;True;neither;1,5;-0,15;-1;neither;0,974999904633
SBS92w;2017-06-02-09-17-56;2;8;1,11445320234;False;right;1,7;0,15;-1;both;1,75699996948
SBS92w;2017-06-02-09-17-56;2;9;0,899803746281;True;both;1,1;0,15;1;neither;2,31299996376
SBS92w;2017-06-02-09-17-56;2;10;1,10941600553;False;left;1,9;0,0;-1;left;0,75200009346
SBS92w;2017-06-02-09-17-56;2;11;0,991653570118;True;both;1,1;0,0;1;both;0,569999933243
SBS92w;2017-06-02-09-17-56;2;12;1,12067467116;False;right;1,7;0,15;1;right;0,624000072479
SBS92w;2017-06-02-09-17-56;2;13;0,99973724764;True;both;1,3;0,0;-1;right;0,578000068665
SBS92w;2017-06-02-09-17-56;2;14;0,921140799958;False;left;1,3;0,0;-1;both;0,493000030518
SBS92w;2017-06-02-09-17-56;2;15;1,02732037151;True;left;1,1;0,0;-1;both;1,88000011444
SBS92w;2017-06-02-09-17-56;2;16;0,968567395902;False;both;1,3;0,15;-1;neither;0,49599981308
SBS92w;2017-06-02-09-17-56;2;17;1,13558478382;True;both;1,5;0,0;-1;left;0,521000146866
SBS92w;2017-06-02-09-17-56;2;18;1,07771344033;False;right;1,5;0,0;1;right;0,701999902725
SBS92w;2017-06-02-09-17-56;2;19;0,940506668267;True;right;1,7;0,0;-1;both;0,790999889374
SBS92w;2017-06-02-09-17-56;2;20;0,977417696799;False;left;1,3;-0,15;1;neither;1,22799992561
SBS92w;2017-06-02-09-17-56;2;21;0,972784977481;True;left;1,9;-0,15;1;left;0,56200003624
SBS92w;2017-06-02-09-17-56;2;22;1,1466130093;False;right;1,9;0,15;1;neither;0,764999866486
SBS92w;2017-06-02-09-17-56;2;23;0,940912773027;True;neither;1,7;0,0;1;neither;1,15799999237
SBS92w;2017-06-02-09-17-56;2;24;0,806806368587;False;left;1,3;0,15;-1;left;0,580999851227
SBS92w;2017-06-02-09-17-56;2;25;0,835585566575;True;neither;1,7;-0,15;1;neither;0,55999994278
SBS92w;2017-06-02-09-17-56;2;26;1,15240364712;False;both;1,3;-0,15;1;both;0,771999835968
SBS92w;2017-06-02-09-17-56;2;27;0,937049023848;True;left;1,7;0,0;1;left;0,56200003624
SBS92w;2017-06-02-09-17-56;2;28;0,937564583615;False;right;1,5;-0,15;-1;right;0,469000101089
SBS92w;2017-06-02-09-17-56;2;29;0,820997197142;True;both;1,9;0,0;-1;left;0,84700012207
SBS92w;2017-06-02-09-17-56;2;30;0,960571751253;False;neither;1,1;-0,15;1;neither;0,486000061035
SBS92w;2017-06-02-09-17-56;2;31;0,941174455927;True;right;1,9;0,0;-1;right;1,59599995613
SBS92w;2017-06-02-09-17-56;2;32;0,87376236942;False;left;1,9;0,0;-1;left;0,56200003624
SBS92w;2017-06-02-09-17-56;2;33;0,909896875798;True;neither;1,5;0,0;1;neither;0,504999876022
SBS92w;2017-06-02-09-17-56;2;34;0,910974739133;False;left;1,5;0,15;-1;neither;0,75
SBS92w;2017-06-02-09-17-56;2;35;0,875485587945;True;right;1,1;0,0;-1;neither;0,62099981308
SBS92w;2017-06-02-09-17-56;2;36;0,886991930287;False;right;1,1;0,15;-1;right;0,521000146866
SBS92w;2017-06-02-09-17-56;2;37;1,08415683582;True;neither;1,5;0,15;-1;neither;0,792999982834
SBS92w;2017-06-02-09-17-56;2;38;0,8650855353;False;both;1,1;-0,15;1;right;0,765000104904
SBS92w;2017-06-02-09-17-56;2;39;1,05858155801;True;right;1,9;-0,15;1;right;1,57999992371
SBS92w;2017-06-02-09-17-56;2;40;1,07474513717;False;left;1,1;0,15;-1;neither;0,513000011444
SBS92w;2017-06-02-09-17-56;2;41;0,945240599488;True;left;1,5;0,0;-1;neither;1,1740000248
SBS92w;2017-06-02-09-17-56;2;42;1,03287266753;False;left;1,9;-0,15;-1;both;0,84099984169
SBS92w;2017-06-02-09-17-56;2;43;1,08658299252;True;left;1,1;-0,15;1;neither;0,637000083923
SBS92w;2017-06-02-09-17-56;2;44;1,09796335181;False;left;1,5;0,15;-1;neither;0,638999938965
SBS92w;2017-06-02-09-17-56;2;45;1,18645508632;True;neither;1,3;0,0;-1;left;0,551000118256
SBS92w;2017-06-02-09-17-56;3;1;0,930450338591;False;left;1,5;-0,15;1;neither;0,427999973297
SBS92w;2017-06-02-09-17-56;3;2;1,16128339996;True;neither;1,1;0,0;-1;neither;0,56299996376
SBS92w;2017-06-02-09-17-56;3;3;0,900824888916;False;right;1,9;-0,15;1;neither;0,541999816895
SBS92w;2017-06-02-09-17-56;3;4;1,12529503074;True;right;1,3;-0,15;-1;neither;0,516000032425
SBS92w;2017-06-02-09-17-56;3;5;1,06778493609;False;both;1,1;-0,15;-1;left;1,01600003242
SBS92w;2017-06-02-09-17-56;3;6;1,0117856727;True;right;1,3;-0,15;1;neither;0,703999996185
SBS92w;2017-06-02-09-17-56;3;7;0,913758548468;False;left;1,9;-0,15;1;neither;0,62299990654
SBS92w;2017-06-02-09-17-56;3;8;1,10847795583;True;left;1,5;0,15;1;left;0,534999847412
SBS92w;2017-06-02-09-17-56;3;9;0,907676323937;False;neither;1,5;-0,15;1;neither;0,778000116348
SBS92w;2017-06-02-09-17-56;3;10;1,10120984804;True;right;1,9;0,0;1;neither;0,887000083923
SBS92w;2017-06-02-09-17-56;3;11;1,17360676797;False;right;1,5;0,15;-1;right;0,786000013351
SBS92w;2017-06-02-09-17-56;3;12;1,14704432969;True;left;1,3;-0,15;-1;neither;0,648999929428
SBS92w;2017-06-02-09-17-56;3;13;1,0924143255;False;both;1,3;-0,15;-1;neither;0,658999919891
SBS92w;2017-06-02-09-17-56;3;14;0,951310024352;True;neither;1,3;0,15;1;neither;0,560000181198
SBS92w;2017-06-02-09-17-56;3;15;0,807297252063;False;left;1,1;0,0;1;neither;0,526000022888
SBS92w;2017-06-02-09-17-56;3;16;0,937254499495;True;both;1,1;0,15;-1;neither;0,766000032425
SBS92w;2017-06-02-09-17-56;3;17;1,13097047206;False;neither;1,9;-0,15;1;neither;0,553999900818
SBS92w;2017-06-02-09-17-56;3;18;1,10621625928;True;right;1,1;-0,15;-1;neither;0,628999948502
SBS92w;2017-06-02-09-17-56;3;19;0,867633731646;False;left;1,9;0,15;-1;neither;0,822000026703
SBS92w;2017-06-02-09-17-56;3;20;1,07587335513;True;right;1,3;0,15;1;right;0,791999816895
SBS92w;2017-06-02-09-17-56;3;21;1,14048598848;False;right;1,5;0,0;-1;both;1,12800002098
SBS92w;2017-06-02-09-17-56;3;22;1,16901165519;True;right;1,1;0,0;-1;right;1,27300000191
SBS92w;2017-06-02-09-17-56;3;23;0,898932685111;False;right;1,7;-0,15;1;neither;0,927000045776
SBS92w;2017-06-02-09-17-56;3;24;0,906912139002;True;right;1,3;0,0;1;right;0,645000219345
SBS92w;2017-06-02-09-17-56;3;25;0,981873688778;False;left;1,7;0,0;-1;neither;0,62299990654
SBS92w;2017-06-02-09-17-56;3;26;0,923845087325;True;both;1,3;0,15;1;both;0,630000114441
SBS92w;2017-06-02-09-17-56;3;27;0,840234731224;False;left;1,5;-0,15;1;neither;0,594000101089
SBS92w;2017-06-02-09-17-56;3;28;1,03144120158;True;left;1,1;0,0;-1;neither;0,930000066757
SBS92w;2017-06-02-09-17-56;3;29;1,0299776885;False;right;1,3;0,0;-1;both;0,619999885559
SBS92w;2017-06-02-09-17-56;3;30;1,11406253048;True;neither;1,5;0,0;1;neither;0,981999874115
SBS92w;2017-06-02-09-17-56;3;31;1,0357694757;False;left;1,5;0,0;-1;neither;2,17499995232
SBS92w;2017-06-02-09-17-56;3;32;0,907574722606;True;right;1,7;0,0;-1;both;0,964999914169
SBS92w;2017-06-02-09-17-56;3;33;1,12430932819;False;left;1,7;-0,15;1;neither;0,636999845505
SBS92w;2017-06-02-09-17-56;3;34;0,865179780919;True;both;1,7;0,0;-1;both;0,492000102997
SBS92w;2017-06-02-09-17-56;3;35;1,01822691329;False;right;1,9;0,0;1;both;0,685000181198
SBS92w;2017-06-02-09-17-56;3;36;1,1046836374;True;neither;1,1;-0,15;1;neither;0,911000013351
SBS92w;2017-06-02-09-17-56;3;37;0,839631164475;False;left;1,1;-0,15;1;left;1,91199994087
SBS92w;2017-06-02-09-17-56;3;38;0,895224062761;True;right;1,9;0,15;1;right;0,40499997139
SBS92w;2017-06-02-09-17-56;3;39;1,06064817473;False;neither;1,3;-0,15;-1;neither;0,408999919891
SBS92w;2017-06-02-09-17-56;3;40;1,12995562693;True;left;1,3;0,0;-1;left;0,740000009537
SBS92w;2017-06-02-09-17-56;3;41;0,928814525722;False;left;1,3;0,15;-1;left;0,425999879837
SBS92w;2017-06-02-09-17-56;3;42;1,00813537377;True;neither;1,3;0,0;1;neither;1,07500004768
SBS92w;2017-06-02-09-17-56;3;43;1,182048139;False;left;1,1;-0,15;1;right;0,549000024796
SBS92w;2017-06-02-09-17-56;3;44;1,18951213481;True;right;1,9;-0,15;-1;neither;0,436000108719
SBS92w;2017-06-02-09-17-56;3;45;1,0098813359;False;left;1,1;0,15;-1;neither;0,701999902725
SBS92w;2017-06-02-09-17-56;4;1;0,950686381874;True;left;1,5;-0,15;-1;neither;0,450000047684
SBS92w;2017-06-02-09-17-56;4;2;1,10490324392;False;neither;1,1;0,0;-1;neither;0,651000022888
SBS92w;2017-06-02-09-17-56;4;3;0,966402633494;True;right;1,9;-0,15;-1;neither;0,613999843597
SBS92w;2017-06-02-09-17-56;4;4;1,17933552373;False;right;1,3;-0,15;-1;neither;0,993000030518
SBS92w;2017-06-02-09-17-56;4;5;0,984275459626;True;both;1,1;-0,15;-1;left;1,35099983215
SBS92w;2017-06-02-09-17-56;4;6;1,01942087598;False;right;1,3;-0,15;1;right;0,538000106812
SBS92w;2017-06-02-09-17-56;4;7;0,937945798413;True;left;1,9;-0,15;-1;left;0,608999967575
SBS92w;2017-06-02-09-17-56;4;8;0,994752098443;False;left;1,5;0,15;-1;neither;0,880000114441
SBS92w;2017-06-02-09-17-56;4;9;1,0637882928;True;neither;1,5;-0,15;-1;neither;1,12300014496
SBS92w;2017-06-02-09-17-56;4;10;0,997675696993;False;right;1,9;0,0;-1;neither;1,35500001907
SBS92w;2017-06-02-09-17-56;4;11;0,861515936394;True;right;1,5;0,15;1;right;0,594000101089
SBS92w;2017-06-02-09-17-56;4;12;0,966409862556;False;left;1,3;-0,15;1;neither;0,568000078201
SBS92w;2017-06-02-09-17-56;4;13;0,850598990606;True;both;1,3;-0,15;1;neither;0,616999864578
SBS92w;2017-06-02-09-17-56;4;14;0,928577179201;False;neither;1,3;0,15;1;neither;0,552999973297
SBS92w;2017-06-02-09-17-56;4;15;0,829159080809;True;left;1,1;0,0;-1;neither;0,838999986649
SBS92w;2017-06-02-09-17-56;4;16;1,07701226908;False;both;1,1;0,15;-1;left;0,543999910355
SBS92w;2017-06-02-09-17-56;4;17;1,1789459676;True;neither;1,9;-0,15;1;neither;0,527000188828
SBS92w;2017-06-02-09-17-56;4;18;0,982282100766;False;right;1,1;-0,15;1;neither;0,569999933243
SBS92w;2017-06-02-09-17-56;4;19;1,18493014414;True;left;1,9;0,15;1;left;0,643000125885
SBS92w;2017-06-02-09-17-56;4;20;0,961264011362;False;right;1,3;0,15;-1;neither;0,692999839783
SBS92w;2017-06-02-09-17-56;4;21;0,934304172871;True;right;1,5;0,0;-1;both;1,25400018692
SBS92w;2017-06-02-09-17-56;4;22;1,00229874548;False;right;1,1;0,0;1;neither;1,02400016785
SBS92w;2017-06-02-09-17-56;4;23;1,13604446602;True;right;1,7;-0,15;-1;neither;0,712000131607
SBS92w;2017-06-02-09-17-56;4;24;0,873746772277;False;right;1,3;0,0;-1;neither;0,927000045776
SBS92w;2017-06-02-09-17-56;4;25;0,829950377877;True;left;1,7;0,0;-1;neither;1,02300000191
SBS92w;2017-06-02-09-17-56;4;26;0,934028703405;False;both;1,3;0,15;1;neither;0,969000101089
SBS92w;2017-06-02-09-17-56;4;27;0,947205293761;True;left;1,5;-0,15;1;both;0,552999973297
SBS92w;2017-06-02-09-17-56;4;28;1,01731039036;False;left;1,1;0,0;-1;left;0,460000038147
SBS92w;2017-06-02-09-17-56;4;29;1,1358262559;True;right;1,3;0,0;-1;left;0,578999996185
SBS92w;2017-06-02-09-17-56;4;30;1,1509276248;False;neither;1,5;0,0;1;neither;0,815999984741
SBS92w;2017-06-02-09-17-56;4;31;1,06943951901;True;left;1,5;0,0;1;left;0,47000002861
SBS92w;2017-06-02-09-17-56;4;32;1,10701104971;False;right;1,7;0,0;-1;both;0,496000051498
SBS92w;2017-06-02-09-17-56;4;33;0,936792460704;True;left;1,7;-0,15;-1;neither;0,539000034332
SBS92w;2017-06-02-09-17-56;4;34;1,10062021673;False;both;1,7;0,0;1;both;0,555999994278
SBS92w;2017-06-02-09-17-56;4;35;0,902612588483;True;right;1,9;0,0;1;both;0,617999792099
SBS92w;2017-06-02-09-17-56;4;36;0,853792878017;False;neither;1,1;-0,15;-1;neither;0,571999788284
SBS92w;2017-06-02-09-17-56;4;37;0,981045759993;True;left;1,1;-0,15;-1;neither;0,481999874115
SBS92w;2017-06-02-09-17-56;4;38;1,09614608246;False;right;1,9;0,15;-1;neither;0,969999790192
SBS92w;2017-06-02-09-17-56;4;39;0,911224272318;True;neither;1,3;-0,15;1;neither;0,84299993515
SBS92w;2017-06-02-09-17-56;4;40;1,18678370332;False;left;1,3;0,0;-1;both;0,586000204086
SBS92w;2017-06-02-09-17-56;4;41;0,871703317484;True;left;1,3;0,15;1;neither;0,865999937057
SBS92w;2017-06-02-09-17-56;4;42;0,959451511702;False;neither;1,3;0,0;-1;neither;0,641000032425
SBS92w;2017-06-02-09-17-56;4;43;0,943115848972;True;left;1,1;-0,15;1;neither;0,543999910355
SBS92w;2017-06-02-09-17-56;4;44;1,09538581199;False;right;1,9;-0,15;1;neither;0,773999929428
SBS92w;2017-06-02-09-17-56;4;45;0,987560460393;True;left;1,1;0,15;1;both;0,832000017166
SBS92w;2017-06-02-09-17-56;5;1;0,95938896821;False;neither;1,1;-0,15;1;neither;0,533999919891
SBS92w;2017-06-02-09-17-56;5;2;1,19404521935;True;both;1,3;-0,15;-1;both;0,429000139236
SBS92w;2017-06-02-09-17-56;5;3;1,08631204668;False;left;1,1;0,15;1;left;0,412000179291
SBS92w;2017-06-02-09-17-56;5;4;1,1625460058;True;left;1,1;0,0;1;left;0,896000146866
SBS92w;2017-06-02-09-17-56;5;5;0,900083717865;False;both;1,1;-0,15;1;neither;0,470999956131
SBS92w;2017-06-02-09-17-56;5;6;1,13175296654;True;right;1,3;-0,15;1;right;0,523999929428
SBS92w;2017-06-02-09-17-56;5;7;0,897280730463;False;both;1,7;0,0;1;both;0,447000026703
SBS92w;2017-06-02-09-17-56;5;8;1,13618023939;True;neither;1,3;0,15;-1;neither;0,488999843597
SBS92w;2017-06-02-09-17-56;5;9;1,18308808392;False;left;1,7;0,15;1;neither;0,677000045776
SBS92w;2017-06-02-09-17-56;5;10;1,17190140096;True;left;1,1;0,15;-1;neither;0,496000051498
SBS92w;2017-06-02-09-17-56;5;11;1,05206006401;False;right;1,9;0,0;1;neither;0,459000110626
SBS92w;2017-06-02-09-17-56;5;12;0,926893504136;True;both;1,5;-0,15;-1;neither;0,490000009537
SBS92w;2017-06-02-09-17-56;5;13;1,19111874217;False;both;1,5;0,15;-1;neither;0,657999992371
SBS92w;2017-06-02-09-17-56;5;14;0,879532452523;True;neither;1,1;0,15;-1;neither;0,861999988556
SBS92w;2017-06-02-09-17-56;5;15;0,923917295618;False;right;1,9;0,0;1;neither;0,886999845505
SBS92w;2017-06-02-09-17-56;5;16;0,984389459157;True;right;1,5;-0,15;-1;neither;0,817000150681
SBS92w;2017-06-02-09-17-56;5;17;0,98753786299;False;both;1,1;0,0;1;both;0,667000055313
SBS92w;2017-06-02-09-17-56;5;18;0,836749867032;True;both;1,9;0,0;1;left;2,17000007629
SBS92w;2017-06-02-09-17-56;5;19;0,859691148749;False;both;1,9;0,15;-1;right;0,539000034332
SBS92w;2017-06-02-09-17-56;5;20;0,860683000896;True;neither;1,5;0,0;1;neither;0,466000080109
SBS92w;2017-06-02-09-17-56;5;21;1,06322786025;False;left;1,3;-0,15;-1;left;0,417999982834
SBS92w;2017-06-02-09-17-56;5;22;0,983700068432;True;left;1,3;0,0;1;left;0,43499994278
SBS92w;2017-06-02-09-17-56;5;23;0,924375537591;False;right;1,7;-0,15;1;neither;0,607000112534
SBS92w;2017-06-02-09-17-56;5;24;1,08333197405;True;both;1,9;-0,15;-1;both;0,554999828339
SBS92w;2017-06-02-09-17-56;5;25;0,880443263537;False;left;1,5;0,15;-1;left;0,617000102997
SBS92w;2017-06-02-09-17-56;5;26;0,826819892543;True;both;1,1;0,15;-1;both;0,53400015831
SBS92w;2017-06-02-09-17-56;5;27;1,1923569258;False;left;1,5;0,0;1;left;0,515999794006
SBS92w;2017-06-02-09-17-56;5;28;1,00700828918;True;left;1,3;0,0;-1;left;0,390000104904
SBS92w;2017-06-02-09-17-56;5;29;0,881354262287;False;right;1,5;0,15;1;right;0,365000009537
SBS92w;2017-06-02-09-17-56;5;30;1,12498204252;True;right;1,1;0,0;-1;left;1,04299998283
SBS92w;2017-06-02-09-17-56;5;31;0,910410201696;False;neither;1,9;0,0;1;right;1,39199995995
SBS92w;2017-06-02-09-17-56;5;32;0,876512478638;True;left;1,5;-0,15;1;neither;0,93700003624
SBS92w;2017-06-02-09-17-56;5;33;0,904281306057;False;right;1,9;-0,15;1;neither;0,4390001297
SBS92w;2017-06-02-09-17-56;5;34;0,971711986432;True;right;1,3;0,0;1;neither;0,601000070572
SBS92w;2017-06-02-09-17-56;5;35;1,18634581948;False;left;1,5;-0,15;-1;neither;0,663000106812
SBS92w;2017-06-02-09-17-56;5;36;0,984785909469;True;right;1,5;-0,15;1;right;0,465000152588
SBS92w;2017-06-02-09-17-56;5;37;0,852969185771;False;neither;1,3;0,0;-1;neither;0,536000013351
SBS92w;2017-06-02-09-17-56;5;38;1,07512240576;True;right;1,9;0,15;-1;left;0,743999958038
SBS92w;2017-06-02-09-17-56;5;39;1,12538283446;False;neither;1,1;0,0;1;neither;0,425999879837
SBS92w;2017-06-02-09-17-56;5;40;0,955732966289;True;neither;1,7;0,0;1;neither;0,869999885559
SBS92w;2017-06-02-09-17-56;5;41;1,15520059298;False;neither;1,5;-0,15;-1;neither;0,453999996185
SBS92w;2017-06-02-09-17-56;5;42;0,841150825324;True;neither;1,3;-0,15;1;neither;0,805999994278
SBS92w;2017-06-02-09-17-56;5;43;1,09121569949;False;left;1,1;-0,15;-1;left;1,23000001907
SBS92w;2017-06-02-09-17-56;5;44;0,803060274988;True;right;1,9;0,15;-1;neither;2,48599982262
SBS92w;2017-06-02-09-17-56;5;45;1,05570987738;False;left;1,5;0,15;-1;neither;0,535000085831
SBS92w;2017-06-02-09-17-56;6;1;1,07572145006;True;neither;1,1;-0,15;-1;left;1,50300002098
SBS92w;2017-06-02-09-17-56;6;2;0,892723911293;False;both;1,3;-0,15;1;both;0,575999975204
SBS92w;2017-06-02-09-17-56;6;3;0,810977290618;True;left;1,1;0,15;1;left;0,753000020981
SBS92w;2017-06-02-09-17-56;6;4;1,01747937945;False;left;1,1;0,0;-1;both;0,519000053406
SBS92w;2017-06-02-09-17-56;6;5;1,18885402875;True;both;1,1;-0,15;1;right;0,493000030518
SBS92w;2017-06-02-09-17-56;6;6;0,992201575403;False;right;1,3;-0,15;-1;neither;1,52099990845
SBS92w;2017-06-02-09-17-56;6;7;1,16481714252;True;both;1,7;0,0;1;neither;0,460000038147
SBS92w;2017-06-02-09-17-56;6;8;1,04301299148;False;neither;1,3;0,15;1;neither;0,489000082016
SBS92w;2017-06-02-09-17-56;6;9;1,13296160075;True;left;1,7;0,15;1;neither;0,943000078201
SBS92w;2017-06-02-09-17-56;6;10;0,819911345371;False;left;1,1;0,15;-1;neither;0,561000108719
SBS92w;2017-06-02-09-17-56;6;11;1,01304034588;True;right;1,9;0,0;-1;right;1,09900021553
SBS92w;2017-06-02-09-17-56;6;12;1,06943400469;False;both;1,5;-0,15;-1;neither;0,523000001907
SBS92w;2017-06-02-09-17-56;6;13;0,971627886645;True;both;1,5;0,15;1;neither;0,453000068665
SBS92w;2017-06-02-09-17-56;6;14;0,846757870054;False;neither;1,1;0,15;1;neither;0,630000114441
SBS92w;2017-06-02-09-17-56;6;15;0,91947485632;True;right;1,9;0,0;-1;neither;0,572000026703
SBS92w;2017-06-02-09-17-56;6;16;1,18020688928;False;right;1,5;-0,15;1;neither;0,702000141144
SBS92w;2017-06-02-09-17-56;6;17;1,10187250144;True;both;1,1;0,0;1;neither;0,899000167847
SBS92w;2017-06-02-09-17-56;6;18;0,804930296186;False;both;1,9;0,0;-1;left;0,479000091553
SBS92w;2017-06-02-09-17-56;6;19;0,861741863506;True;both;1,9;0,15;1;neither;0,608999967575
SBS92w;2017-06-02-09-17-56;6;20;0,945827875382;False;neither;1,5;0,0;-1;neither;0,457000017166
SBS92w;2017-06-02-09-17-56;6;21;1,15207233272;True;left;1,3;-0,15;1;neither;0,575999975204
SBS92w;2017-06-02-09-17-56;6;22;0,856837491688;False;left;1,3;0,0;1;neither;1,47399997711
SBS92w;2017-06-02-09-17-56;6;23;0,895337525878;True;right;1,7;-0,15;-1;neither;0,733000040054
SBS92w;2017-06-02-09-17-56;6;24;0,893435608001;False;both;1,9;-0,15;-1;neither;0,442000150681
SBS92w;2017-06-02-09-17-56;6;25;1,13644170862;True;left;1,5;0,15;-1;both;1,97600007057
SBS92w;2017-06-02-09-17-56;6;26;1,07275930803;False;both;1,1;0,15;-1;neither;0,6890001297
SBS92w;2017-06-02-09-17-56;6;27;1,15908430714;True;left;1,5;0,0;1;left;0,457000017166
SBS92w;2017-06-02-09-17-56;6;28;1,19650673043;False;left;1,3;0,0;-1;left;0,375
SBS92w;2017-06-02-09-17-56;6;29;0,936387873416;True;right;1,5;0,15;-1;both;0,542000055313
SBS92w;2017-06-02-09-17-56;6;30;0,929467398718;False;right;1,1;0,0;1;both;1,03299999237
SBS92w;2017-06-02-09-17-56;6;31;1,01729220009;True;neither;1,9;0,0;1;neither;1,12699985504
SBS92w;2017-06-02-09-17-56;6;32;1,19133752621;False;left;1,5;-0,15;1;left;0,425999879837
SBS92w;2017-06-02-09-17-56;6;33;0,869655362524;True;right;1,9;-0,15;1;neither;1,04600000381
SBS92w;2017-06-02-09-17-56;6;34;1,18426793658;False;right;1,3;0,0;1;both;0,686000108719
SBS92w;2017-06-02-09-17-56;6;35;0,859425227258;True;left;1,5;-0,15;-1;left;0,391999959946
SBS92w;2017-06-02-09-17-56;6;36;1,08255100418;False;right;1,5;-0,15;1;both;0,473000049591
SBS92w;2017-06-02-09-17-56;6;37;1,16789713454;True;neither;1,3;0,0;-1;neither;1,01999998093
SBS92w;2017-06-02-09-17-56;6;38;1,10131047177;False;right;1,9;0,15;-1;both;0,69000005722
SBS92w;2017-06-02-09-17-56;6;39;1,09148351295;True;neither;1,1;0,0;1;left;1,52900004387
SBS92w;2017-06-02-09-17-56;6;40;0,965052040562;False;neither;1,7;0,0;-1;neither;0,763000011444
SBS92w;2017-06-02-09-17-56;6;41;1,04037437097;True;neither;1,5;-0,15;-1;neither;0,696000099182
SBS92w;2017-06-02-09-17-56;6;42;1,04260858861;False;neither;1,3;-0,15;1;neither;0,43499994278
SBS92w;2017-06-02-09-17-56;6;43;1,17958751353;True;left;1,1;-0,15;1;left;0,721999883652
SBS92w;2017-06-02-09-17-56;6;44;1,08910633652;False;right;1,9;0,15;-1;both;1,617000103
SBS92w;2017-06-02-09-17-56;6;45;0,98478892533;True;left;1,5;0,15;-1;right;1,88400006294
SBS92w;2017-06-02-09-17-56;7;1;1,15692520133;False;right;1,1;0,15;-1;left;0,577999830246
SBS92w;2017-06-02-09-17-56;7;2;1,16047162574;True;right;1,3;0,15;1;neither;0,585000038147
SBS92w;2017-06-02-09-17-56;7;3;1,0294853142;False;neither;1,3;-0,15;1;neither;0,648999929428
SBS92w;2017-06-02-09-17-56;7;4;1,03274355919;True;left;1,1;0,0;-1;neither;0,414000034332
SBS92w;2017-06-02-09-17-56;7;5;1,19602556773;False;right;1,9;0,0;1;right;0,388999938965
SBS92w;2017-06-02-09-17-56;7;6;1,16606353101;True;right;1,1;0,15;1;neither;0,467000007629
SBS92w;2017-06-02-09-17-56;7;7;0,837714529985;False;neither;1,5;-0,15;1;neither;0,419999837875
SBS92w;2017-06-02-09-17-56;7;8;0,874585156162;True;neither;1,7;0,15;-1;neither;0,642000198364
SBS92w;2017-06-02-09-17-56;7;9;1,07344175413;False;left;1,9;0,15;-1;neither;0,587000131607
SBS92w;2017-06-02-09-17-56;7;10;1,00534712131;True;left;1,7;0,15;-1;neither;0,466999769211
SBS92w;2017-06-02-09-17-56;7;11;0,964477410682;False;left;1,3;0,0;-1;neither;0,733000040054
SBS92w;2017-06-02-09-17-56;7;12;1,07381618994;True;right;1,9;-0,15;-1;neither;0,878000020981
SBS92w;2017-06-02-09-17-56;7;13;0,913662049491;False;both;1,3;0,15;1;both;0,697000026703
SBS92w;2017-06-02-09-17-56;7;14;0,842542748073;True;left;1,9;-0,15;1;neither;1,30100011826
SBS92w;2017-06-02-09-17-56;7;15;0,954827561099;False;right;1,7;0,15;1;right;0,432000160217
SBS92w;2017-06-02-09-17-56;7;16;1,12481105279;True;neither;1,5;0,15;-1;neither;0,463999986649
SBS92w;2017-06-02-09-17-56;7;17;1,11442537023;False;left;1,9;0,0;1;left;0,463999986649
SBS92w;2017-06-02-09-17-56;7;18;0,815935406555;True;neither;1,3;0,15;-1;neither;0,755999803543
SBS92w;2017-06-02-09-17-56;7;19;0,885750603758;False;neither;1,7;-0,15;1;neither;0,558000087738
SBS92w;2017-06-02-09-17-56;7;20;0,947457019928;True;both;1,1;-0,15;-1;neither;0,565999984741
SBS92w;2017-06-02-09-17-56;7;21;0,832767784459;False;right;1,5;-0,15;1;neither;0,526000022888
SBS92w;2017-06-02-09-17-56;7;22;0,823151436555;True;right;1,3;0,15;1;both;1,86500000954
SBS92w;2017-06-02-09-17-56;7;23;0,895015901937;False;both;1,5;-0,15;1;right;1,08099985123
SBS92w;2017-06-02-09-17-56;7;24;1,00289700051;True;right;1,7;-0,15;1;both;0,590000152588
SBS92w;2017-06-02-09-17-56;7;25;0,903961428563;False;right;1,9;-0,15;1;neither;0,664000034332
SBS92w;2017-06-02-09-17-56;7;26;1,13198403003;True;right;1,7;0,0;1;both;0,505000114441
SBS92w;2017-06-02-09-17-56;7;27;0,889477535492;False;left;1,9;0,0;-1;both;0,493999958038
SBS92w;2017-06-02-09-17-56;7;28;1,0395000589;True;neither;1,9;0,0;-1;neither;0,921999931335
SBS92w;2017-06-02-09-17-56;7;29;1,02223885248;False;right;1,1;-0,15;-1;both;1,13899993896
SBS92w;2017-06-02-09-17-56;7;30;0,918516737321;True;left;1,3;0,15;-1;left;0,552000045776
SBS92w;2017-06-02-09-17-56;7;31;1,12145538951;False;both;1,1;0,0;-1;both;0,582999944687
SBS92w;2017-06-02-09-17-56;7;32;0,972794363806;True;right;1,9;0,15;-1;neither;0,470999956131
SBS92w;2017-06-02-09-17-56;7;33;1,18398602622;False;right;1,5;0,15;1;right;0,407999992371
SBS92w;2017-06-02-09-17-56;7;34;0,874429185229;True;right;1,5;0,0;1;both;0,588999986649
SBS92w;2017-06-02-09-17-56;7;35;1,02974849547;False;neither;1,1;0,15;1;neither;0,399000167847
SBS92w;2017-06-02-09-17-56;7;36;0,877761451856;True;neither;1,7;0,0;1;neither;0,388999938965
SBS92w;2017-06-02-09-17-56;7;37;1,03540321685;False;right;1,5;-0,15;-1;neither;0,449999809265
SBS92w;2017-06-02-09-17-56;7;38;1,01494224375;True;left;1,5;0,0;1;neither;0,431999921799
SBS92w;2017-06-02-09-17-56;7;39;1,14881689493;False;right;1,7;-0,15;1;neither;0,743000030518
SBS92w;2017-06-02-09-17-56;7;40;0,967205023872;True;right;1,3;0,0;1;neither;0,776000022888
SBS92w;2017-06-02-09-17-56;7;41;0,959343646509;False;both;1,5;0,0;-1;neither;0,977999925613
SBS92w;2017-06-02-09-17-56;7;42;0,861970678261;True;right;1,5;0,0;1;right;0,426000118256
SBS92w;2017-06-02-09-17-56;7;43;0,854754917457;False;left;1,5;-0,15;1;neither;0,384000062943
SBS92w;2017-06-02-09-17-56;7;44;0,944997982794;True;both;1,7;0,0;-1;both;0,580000162125
SBS92w;2017-06-02-09-17-56;7;45;0,922688509282;False;right;1,9;0,0;1;both;0,59299993515
SBS92w;2017-06-02-09-17-56;8;1;0,898950655068;True;right;1,1;0,15;-1;neither;0,479999780655
SBS92w;2017-06-02-09-17-56;8;2;0,881460137859;False;right;1,3;0,15;1;right;0,401999950409
SBS92w;2017-06-02-09-17-56;8;3;1,18475137894;True;neither;1,3;-0,15;-1;neither;0,398000001907
SBS92w;2017-06-02-09-17-56;8;4;1,13013559155;False;left;1,1;0,0;1;neither;0,384999990463
SBS92w;2017-06-02-09-17-56;8;5;0,817450226462;True;right;1,9;0,0;1;right;1,20799994469
SBS92w;2017-06-02-09-17-56;8;6;1,02568849096;False;right;1,1;0,15;1;neither;0,779000043869
SBS92w;2017-06-02-09-17-56;8;7;0,912985908915;True;neither;1,5;-0,15;-1;neither;0,463999986649
SBS92w;2017-06-02-09-17-56;8;8;0,897844134845;False;neither;1,7;0,15;-1;left;0,46599984169
SBS92w;2017-06-02-09-17-56;8;9;0,914723316337;True;left;1,9;0,15;1;neither;0,464999914169
SBS92w;2017-06-02-09-17-56;8;10;0,855099799105;False;left;1,7;0,15;1;left;0,475999832153
SBS92w;2017-06-02-09-17-56;8;11;0,981333078119;True;left;1,3;0,0;-1;neither;0,605000019073
SBS92w;2017-06-02-09-17-56;8;12;0,807308413751;False;right;1,9;-0,15;1;right;1,16899991035
SBS92w;2017-06-02-09-17-56;8;13;1,02414802584;True;both;1,3;0,15;-1;both;0,411000013351
SBS92w;2017-06-02-09-17-56;8;14;1,0978805757;False;left;1,9;-0,15;1;neither;0,538999795914
SBS92w;2017-06-02-09-17-56;8;15;1,14004250614;True;right;1,7;0,15;-1;both;0,521000146866
SBS92w;2017-06-02-09-17-56;8;16;0,896336988257;False;neither;1,5;0,15;1;neither;0,474999904633
SBS92w;2017-06-02-09-17-56;8;17;1,14983719258;True;left;1,9;0,0;-1;neither;1,09899997711
SBS92w;2017-06-02-09-17-56;8;18;0,824273951735;False;neither;1,3;0,15;-1;neither;1,82799983025
SBS92w;2017-06-02-09-17-56;8;19;0,961855224485;True;neither;1,7;-0,15;1;neither;0,540999889374
SBS92w;2017-06-02-09-17-56;8;20;0,979058506409;False;both;1,1;-0,15;-1;both;0,555000066757
SBS92w;2017-06-02-09-17-56;8;21;0,969289613281;True;right;1,5;-0,15;1;right;0,446000099182
SBS92w;2017-06-02-09-17-56;8;22;0,975625925126;False;right;1,3;0,15;-1;both;0,542999982834
SBS92w;2017-06-02-09-17-56;8;23;1,09826065402;True;both;1,5;-0,15;1;both;0,477999925613
SBS92w;2017-06-02-09-17-56;8;24;0,898551976892;False;right;1,7;-0,15;-1;both;0,498999834061
SBS92w;2017-06-02-09-17-56;8;25;0,999586937057;True;right;1,9;-0,15;-1;left;1,14300012589
SBS92w;2017-06-02-09-17-56;8;26;1,13821782489;False;right;1,7;0,0;1;both;0,888999938965
SBS92w;2017-06-02-09-17-56;8;27;0,934858715143;True;left;1,9;0,0;-1;neither;0,474999904633
SBS92w;2017-06-02-09-17-56;8;28;1,1309457341;False;neither;1,9;0,0;-1;neither;0,670000076294
SBS92w;2017-06-02-09-17-56;8;29;1,05602830045;True;right;1,1;-0,15;-1;both;0,540000200272
SBS92w;2017-06-02-09-17-56;8;30;1,16345998391;False;left;1,3;0,15;1;left;0,493999958038
SBS92w;2017-06-02-09-17-56;8;31;1,06923065552;True;both;1,1;0,0;1;right;3,10100007057
SBS92w;2017-06-02-09-17-56;8;32;1,09358565803;False;right;1,9;0,15;1;right;0,430000066757
SBS92w;2017-06-02-09-17-56;8;33;0,874116633499;True;right;1,5;0,15;-1;neither;0,554000139236
SBS92w;2017-06-02-09-17-56;8;34;0,92744875505;False;right;1,5;0,0;-1;neither;0,651999950409
SBS92w;2017-06-02-09-17-56;8;35;1,09006984966;True;neither;1,1;0,15;-1;neither;0,450000047684
SBS92w;2017-06-02-09-17-56;8;36;0,990216222025;False;neither;1,7;0,0;1;neither;0,944000005722
SBS92w;2017-06-02-09-17-56;8;37;1,12950003104;True;right;1,5;-0,15;-1;neither;0,611000061035
SBS92w;2017-06-02-09-17-56;8;38;1,09891412867;False;left;1,5;0,0;1;neither;0,412999868393
SBS92w;2017-06-02-09-17-56;8;39;0,86901982035;True;right;1,7;-0,15;1;neither;0,488000154495
SBS92w;2017-06-02-09-17-56;8;40;1,10630855823;False;right;1,3;0,0;1;neither;0,552999973297
SBS92w;2017-06-02-09-17-56;8;41;0,996098211597;True;both;1,5;0,0;-1;neither;2,61100006104
SBS92w;2017-06-02-09-17-56;8;42;1,05277030984;False;right;1,5;0,0;1;neither;0,653000116348
SBS92w;2017-06-02-09-17-56;8;43;1,07406064944;True;left;1,5;-0,15;-1;neither;0,529000043869
SBS92w;2017-06-02-09-17-56;8;44;1,06947289697;False;both;1,7;0,0;1;neither;0,569000005722
SBS92w;2017-06-02-09-17-56;8;45;1,14317190411;True;right;1,9;0,0;-1;neither;1,1210000515
SBS92w;2017-06-02-09-17-56;9;1;1,18758681422;False;right;1,9;-0,15;1;neither;0,534999847412
SBS92w;2017-06-02-09-17-56;9;2;0,97281130877;True;both;1,3;0,0;1;neither;0,723000049591
SBS92w;2017-06-02-09-17-56;9;3;1,04476892146;False;right;1,3;0,0;1;both;0,498000144958
SBS92w;2017-06-02-09-17-56;9;4;0,916880349137;True;right;1,3;-0,15;-1;neither;0,629999876022
SBS92w;2017-06-02-09-17-56;9;5;0,803499560012;False;left;1,1;-0,15;-1;both;0,523999929428
SBS92w;2017-06-02-09-17-56;9;6;1,15935814672;True;left;1,5;0,15;1;left;0,385999917984
SBS92w;2017-06-02-09-17-56;9;7;0,884814007941;False;both;1,7;0,0;-1;neither;0,994999885559
SBS92w;2017-06-02-09-17-56;9;8;1,19383391333;True;right;1,9;0,0;1;neither;2,02300000191
SBS92w;2017-06-02-09-17-56;9;9;1,07832158726;False;left;1,1;0,15;-1;left;0,516000032425
SBS92w;2017-06-02-09-17-56;9;10;0,902301369775;True;left;1,5;0,0;1;both;0,551000118256
SBS92w;2017-06-02-09-17-56;9;11;1,1229324542;False;both;1,9;-0,15;-1;both;1,16899991035
SBS92w;2017-06-02-09-17-56;9;12;0,81743874761;True;neither;1,1;0,15;-1;left;0,591000080109
SBS92w;2017-06-02-09-17-56;9;13;0,818549919226;False;neither;1,1;-0,15;-1;both;0,592000007629
SBS92w;2017-06-02-09-17-56;9;14;0,837638582123;True;neither;1,9;0,15;-1;neither;0,569999933243
SBS92w;2017-06-02-09-17-56;9;15;1,06546485299;False;right;1,1;-0,15;-1;both;0,557000160217
SBS92w;2017-06-02-09-17-56;9;16;1,01486820246;True;left;1,7;0,15;1;neither;0,444000005722
SBS92w;2017-06-02-09-17-56;9;17;1,08271629173;False;left;1,1;0,15;1;neither;0,532999992371
SBS92w;2017-06-02-09-17-56;9;18;0,962737580338;True;left;1,1;0,0;1;left;0,403000116348
SBS92w;2017-06-02-09-17-56;9;19;1,14859390132;False;both;1,3;-0,15;1;both;0,5
SBS92w;2017-06-02-09-17-56;9;20;0,949661881691;True;left;1,1;-0,15;-1;neither;0,476999998093
SBS92w;2017-06-02-09-17-56;9;21;0,991658133066;False;right;1,7;0,0;1;right;0,399999856949
SBS92w;2017-06-02-09-17-56;9;22;1,04873883656;True;neither;1,5;0,0;-1;neither;0,52999997139
SBS92w;2017-06-02-09-17-56;9;23;0,847709266335;False;right;1,5;-0,15;-1;both;0,677999973297
SBS92w;2017-06-02-09-17-56;9;24;1,01615553653;True;neither;1,7;-0,15;1;neither;0,427000045776
SBS92w;2017-06-02-09-17-56;9;25;0,855633998413;False;neither;1,3;0,0;1;neither;0,962000131607
SBS92w;2017-06-02-09-17-56;9;26;1,08579399168;True;left;1,5;-0,15;-1;left;0,404000043869
SBS92w;2017-06-02-09-17-56;9;27;1,00747890136;False;both;1,7;-0,15;-1;both;0,710999965668
SBS92w;2017-06-02-09-17-56;9;28;0,834845081639;True;left;1,3;0,15;1;left;0,450999975204
SBS92w;2017-06-02-09-17-56;9;29;0,922280153781;False;right;1,7;0,15;-1;left;1,78399991989
SBS92w;2017-06-02-09-17-56;9;30;0,851685312478;True;right;1,3;0,15;1;neither;1,02100014687
SBS92w;2017-06-02-09-17-56;9;31;0,847966466638;False;right;1,9;-0,15;1;neither;0,84099984169
SBS92w;2017-06-02-09-17-56;9;32;1,06840150865;True;right;1,5;0,0;1;right;0,378000020981
SBS92w;2017-06-02-09-17-56;9;33;0,863927776648;False;both;1,5;0,0;1;both;0,50200009346
SBS92w;2017-06-02-09-17-56;9;34;0,89515852073;True;left;1,5;0,0;-1;left;0,516000032425
SBS92w;2017-06-02-09-17-56;9;35;1,03016415101;False;right;1,5;0,0;-1;both;0,730999946594
SBS92w;2017-06-02-09-17-56;9;36;1,14070289674;True;right;1,1;0,15;1;both;0,414000034332
SBS92w;2017-06-02-09-17-56;9;37;1,0937740176;False;both;1,5;-0,15;-1;neither;1,09500002861
SBS92w;2017-06-02-09-17-56;9;38;0,959560287249;True;left;1,9;0,15;1;neither;0,738000154495
SBS92w;2017-06-02-09-17-56;9;39;1,15135467958;False;both;1,9;0,0;-1;neither;0,564999818802
SBS92w;2017-06-02-09-17-56;9;40;1,01225289217;True;right;1,5;0,15;-1;neither;1,19900012016
SBS92w;2017-06-02-09-17-56;9;41;0,904000478862;False;right;1,3;-0,15;1;both;0,555999994278
SBS92w;2017-06-02-09-17-56;9;42;1,16671816676;True;left;1,3;0,0;1;left;0,861999988556
SBS92w;2017-06-02-09-17-56;9;43;1,1281334923;False;left;1,9;0,0;-1;neither;0,714000225067
SBS92w;2017-06-02-09-17-56;9;44;1,00325518536;True;left;1,3;-0,15;-1;neither;0,500999927521
SBS92w;2017-06-02-09-17-56;9;45;0,916619194099;False;right;1,7;0,0;1;neither;0,353000164032
SBS92w;2017-06-02-09-17-56;10;1;1,18861237756;True;right;1,9;-0,15;1;neither;0,424999952316
SBS92w;2017-06-02-09-17-56;10;2;1,0543182423;False;both;1,3;0,0;-1;neither;0,350000143051
SBS92w;2017-06-02-09-17-56;10;3;1,17414808293;True;right;1,3;0,0;-1;neither;0,391000032425
SBS92w;2017-06-02-09-17-56;10;4;0,834239527145;False;right;1,3;-0,15;-1;neither;0,378999948502
SBS92w;2017-06-02-09-17-56;10;5;0,844378926089;True;left;1,1;-0,15;-1;neither;0,373000144958
SBS92w;2017-06-02-09-17-56;10;6;0,90360123406;False;left;1,5;0,15;-1;neither;0,743999958038
SBS92w;2017-06-02-09-17-56;10;7;0,959967099196;True;both;1,7;0,0;1;both;0,756999969482
SBS92w;2017-06-02-09-17-56;10;8;0,875915853234;False;right;1,9;0,0;-1;neither;0,519999980927
SBS92w;2017-06-02-09-17-56;10;9;1,1445468046;True;left;1,1;0,15;1;neither;0,393000125885
SBS92w;2017-06-02-09-17-56;10;10;1,16150399787;False;left;1,5;0,0;1;both;0,496999979019
SBS92w;2017-06-02-09-17-56;10;11;0,918231112195;True;both;1,9;-0,15;-1;both;0,515999794006
SBS92w;2017-06-02-09-17-56;10;12;1,1025246486;False;neither;1,1;0,15;-1;neither;1,18899989128
SBS92w;2017-06-02-09-17-56;10;13;0,977317918578;True;neither;1,1;-0,15;1;neither;0,447999954224
SBS92w;2017-06-02-09-17-56;10;14;0,832911963818;False;neither;1,9;0,15;1;neither;0,398000001907
SBS92w;2017-06-02-09-17-56;10;15;0,866418770441;True;right;1,1;-0,15;1;both;0,617999792099
SBS92w;2017-06-02-09-17-56;10;16;1,09751304762;False;left;1,7;0,15;-1;right;0,840000152588
SBS92w;2017-06-02-09-17-56;10;17;0,949721165138;True;left;1,1;0,15;1;left;0,668999910355
SBS92w;2017-06-02-09-17-56;10;18;0,809179413984;False;left;1,1;0,0;-1;left;0,351999998093
SBS92w;2017-06-02-09-17-56;10;19;1,09250370166;True;both;1,3;-0,15;-1;right;0,546000003815
SBS92w;2017-06-02-09-17-56;10;20;1,19257801007;False;left;1,1;-0,15;1;neither;0,531000137329
SBS92w;2017-06-02-09-17-56;10;21;1,15308534385;True;right;1,7;0,0;1;neither;0,416000127792
SBS92w;2017-06-02-09-17-56;10;22;1,10378315838;False;neither;1,5;0,0;1;neither;0,457999944687
SBS92w;2017-06-02-09-17-56;10;23;1,02378718375;True;right;1,5;-0,15;1;neither;0,730999946594
SBS92w;2017-06-02-09-17-56;10;24;0,943353885521;False;neither;1,7;-0,15;1;neither;0,406999826431
SBS92w;2017-06-02-09-17-56;10;25;1,19678361441;True;neither;1,3;0,0;1;neither;0,597999811172
SBS92w;2017-06-02-09-17-56;10;26;1,06140102792;False;left;1,5;-0,15;1;neither;1,257999897
SBS92w;2017-06-02-09-17-56;10;27;1,13508719177;True;both;1,7;-0,15;-1;neither;0,44000005722
SBS92w;2017-06-02-09-17-56;10;28;0,880154710145;False;left;1,3;0,15;1;left;0,359999895096
SBS92w;2017-06-02-09-17-56;10;29;0,956352347332;True;right;1,7;0,15;-1;both;1,49699997902
SBS92w;2017-06-02-09-17-56;10;30;0,973471557133;False;right;1,3;0,15;-1;neither;0,554999828339
SBS92w;2017-06-02-09-17-56;10;31;1,06736127538;True;right;1,9;-0,15;-1;neither;0,421000003815
SBS92w;2017-06-02-09-17-56;10;32;1,10292230143;False;right;1,5;0,0;1;right;0,401000022888
SBS92w;2017-06-02-09-17-56;10;33;0,820269347398;True;both;1,5;0,0;1;both;0,488999843597
SBS92w;2017-06-02-09-17-56;10;34;1,09069890364;False;left;1,5;0,0;1;left;0,40099978447
SBS92w;2017-06-02-09-17-56;10;35;1,15125504588;True;right;1,5;0,0;-1;both;0,638000011444
SBS92w;2017-06-02-09-17-56;10;36;0,990804507476;False;right;1,1;0,15;1;right;0,569000005722
SBS92w;2017-06-02-09-17-56;10;37;1,10230698606;True;both;1,5;-0,15;-1;both;0,944999933243
SBS92w;2017-06-02-09-17-56;10;38;0,987054872862;False;left;1,9;0,15;-1;left;0,526999950409
SBS92w;2017-06-02-09-17-56;10;39;0,906142093699;True;both;1,9;0,0;1;neither;0,576999902725
SBS92w;2017-06-02-09-17-56;10;40;0,863738695493;False;right;1,5;0,15;-1;neither;0,605000019073
SBS92w;2017-06-02-09-17-56;10;41;1,02773317602;True;right;1,3;-0,15;1;neither;0,43499994278
SBS92w;2017-06-02-09-17-56;10;42;1,01730462727;False;left;1,3;0,0;1;neither;0,366000175476
SBS92w;2017-06-02-09-17-56;10;43;1,02223996357;True;left;1,9;0,0;-1;left;0,688999891281
SBS92w;2017-06-02-09-17-56;10;44;0,863400973995;False;left;1,3;-0,15;1;neither;0,414999961853
SBS92w;2017-06-02-09-17-56;10;45;0,830629150908;True;right;1,7;0,0;-1;neither;0,695999860764
