Observer;SessionID;Block;Trial;OnsetDelay;Yellow;Switch;SwitchTime;Gap;Direction;Response;RT
SGP95w;2017-05-30-09-01-25;1;1;0,870061179436;False;left;1,1;0,0;1;left;1,1859998703
SGP95w;2017-05-30-09-01-25;1;2;1,0863213091;True;left;1,3;0,15;1;both;0,894999980927
SGP95w;2017-05-30-09-01-25;1;3;0,826459059961;False;both;1,7;-0,15;1;both;2,21099996567
SGP95w;2017-05-30-09-01-25;1;4;1,04902927747;True;both;1,1;0,0;-1;both;0,711999893188
SGP95w;2017-05-30-09-01-25;1;5;1,02150756665;False;both;1,9;-0,15;1;both;1,05700016022
SGP95w;2017-05-30-09-01-25;1;6;0,820468855695;True;right;1,5;-0,15;1;right;0,50200009346
SGP95w;2017-05-30-09-01-25;1;7;1,08581976139;False;neither;1,7;-0,15;-1;left;1,5
SGP95w;2017-05-30-09-01-25;1;8;0,95969956745;True;both;1,7;0,0;-1;right;2,60900020599
SGP95w;2017-05-30-09-01-25;1;9;0,983206653152;False;both;1,9;0,15;-1;both;1,64800000191
SGP95w;2017-05-30-09-01-25;1;10;0,941049666321;True;neither;1,7;0,0;-1;right;1,31500005722
SGP95w;2017-05-30-09-01-25;1;11;0,957131033606;False;left;1,5;-0,15;-1;left;0,589999914169
SGP95w;2017-05-30-09-01-25;1;12;0,963872946108;True;right;1,1;-0,15;-1;right;0,473000049591
SGP95w;2017-05-30-09-01-25;1;13;0,849102605419;False;right;1,1;0,15;-1;right;0,56299996376
SGP95w;2017-05-30-09-01-25;1;14;0,814090442128;True;right;1,7;-0,15;-1;neither;1,04399991035
SGP95w;2017-05-30-09-01-25;1;15;1,09750102194;False;left;1,9;0,15;-1;neither;1,04600000381
SGP95w;2017-05-30-09-01-25;1;16;1,0194609381;True;neither;1,5;-0,15;-1;neither;0,958000183105
SGP95w;2017-05-30-09-01-25;1;17;1,13904572495;False;right;1,7;0,15;1;right;2,21799993515
SGP95w;2017-05-30-09-01-25;1;18;0,835720109957;True;neither;1,1;0,0;1;neither;0,769000053406
SGP95w;2017-05-30-09-01-25;1;19;1,06760320735;False;both;1,3;0,0;-1;both;0,692000150681
SGP95w;2017-05-30-09-01-25;1;20;1,11575370883;True;neither;1,9;0,15;-1;neither;1,01699995995
SGP95w;2017-05-30-09-01-25;1;21;1,13978629071;False;left;1,5;0,0;-1;left;0,598999977112
SGP95w;2017-05-30-09-01-25;1;22;0,867435413911;True;right;1,3;0,15;1;right;0,530999898911
SGP95w;2017-05-30-09-01-25;1;23;1,16991853483;False;right;1,9;0,15;1;right;0,430999994278
SGP95w;2017-05-30-09-01-25;1;24;1,07048233351;True;neither;1,5;0,15;-1;left;1,03100013733
SGP95w;2017-05-30-09-01-25;1;25;1,10824469765;False;right;1,5;0,15;-1;neither;0,716000080109
SGP95w;2017-05-30-09-01-25;1;26;0,98633599787;True;left;1,1;-0,15;1;left;1,70499992371
SGP95w;2017-05-30-09-01-25;1;27;0,920753691658;False;right;1,5;0,0;1;right;0,532999992371
SGP95w;2017-05-30-09-01-25;1;28;1,18871488175;True;left;1,9;0,0;1;left;0,501000165939
SGP95w;2017-05-30-09-01-25;1;29;0,984736035315;False;neither;1,3;-0,15;1;neither;0,593000173569
SGP95w;2017-05-30-09-01-25;1;30;1,15646101559;True;left;1,7;0,0;1;neither;0,823000192642
SGP95w;2017-05-30-09-01-25;1;31;0,903521106301;False;right;1,7;-0,15;-1;right;3,46099996567
SGP95w;2017-05-30-09-01-25;1;32;1,07983932923;True;right;1,3;-0,15;1;neither;0,795000076294
SGP95w;2017-05-30-09-01-25;1;33;0,928633303972;False;right;1,9;0,15;-1;neither;1,2539999485
SGP95w;2017-05-30-09-01-25;1;34;1,10892521725;True;left;1,7;0,15;1;neither;2,04600000381
SGP95w;2017-05-30-09-01-25;1;35;0,8408318774;False;left;1,5;0,15;-1;neither;1,16499996185
SGP95w;2017-05-30-09-01-25;1;36;0,97764666762;True;both;1,3;-0,15;1;both;0,593999862671
SGP95w;2017-05-30-09-01-25;1;37;0,848655246607;False;left;1,7;0,15;1;neither;1,42000007629
SGP95w;2017-05-30-09-01-25;1;38;1,17498111048;True;left;1,3;0,15;1;neither;0,986000061035
SGP95w;2017-05-30-09-01-25;1;39;1,06163064304;False;right;1,9;-0,15;1;neither;0,699000120163
SGP95w;2017-05-30-09-01-25;1;40;0,808474391982;True;neither;1,5;0,0;1;neither;1,09800004959
SGP95w;2017-05-30-09-01-25;1;41;0,900341116321;False;right;1,1;-0,15;1;neither;0,927000045776
SGP95w;2017-05-30-09-01-25;1;42;1,03396179491;True;both;1,9;0,0;-1;neither;2,19400000572
SGP95w;2017-05-30-09-01-25;1;43;1,03807929362;False;neither;1,9;-0,15;1;neither;0,828999996185
SGP95w;2017-05-30-09-01-25;1;44;0,935928217288;True;left;1,5;-0,15;-1;neither;1,01300001144
SGP95w;2017-05-30-09-01-25;1;45;0,94837458515;False;right;1,5;-0,15;1;neither;0,797000169754
SGP95w;2017-05-30-09-01-25;2;1;0,900986144059;True;left;1,1;0,0;-1;neither;0,944999933243
SGP95w;2017-05-30-09-01-25;2;2;0,912806169144;False;left;1,3;0,15;-1;neither;2,31699991226
SGP95w;2017-05-30-09-01-25;2;3;0,988407225792;True;both;1,7;-0,15;1;both;0,375999927521
SGP95w;2017-05-30-09-01-25;2;4;0,81685843535;False;both;1,1;0,0;-1;neither;0,674999952316
SGP95w;2017-05-30-09-01-25;2;5;0,922332217047;True;both;1,9;-0,15;-1;both;1,91400003433
SGP95w;2017-05-30-09-01-25;2;6;0,861393772682;False;right;1,5;-0,15;-1;both;0,656000137329
SGP95w;2017-05-30-09-01-25;2;7;0,836941591603;True;neither;1,7;-0,15;-1;neither;0,641999959946
SGP95w;2017-05-30-09-01-25;2;8;0,961681910742;False;both;1,7;0,0;-1;both;0,199000120163
SGP95w;2017-05-30-09-01-25;2;9;0,88565428605;True;both;1,9;0,15;1;both;0,686000108719
SGP95w;2017-05-30-09-01-25;2;10;0,879052053525;False;neither;1,7;0,0;1;neither;0,530000209808
SGP95w;2017-05-30-09-01-25;2;11;1,00162338728;True;left;1,5;-0,15;-1;left;0,607000112534
SGP95w;2017-05-30-09-01-25;2;12;1,13782903434;False;right;1,1;-0,15;-1;neither;0,634999990463
SGP95w;2017-05-30-09-01-25;2;13;1,05841587001;True;right;1,1;0,15;1;neither;0,957999944687
SGP95w;2017-05-30-09-01-25;2;14;0,841705106315;False;right;1,7;-0,15;-1;right;0,591000080109
SGP95w;2017-05-30-09-01-25;2;15;0,877500230322;True;left;1,9;0,15;1;left;0,651999950409
SGP95w;2017-05-30-09-01-25;2;16;1,03884390322;False;neither;1,5;-0,15;-1;neither;0,473999977112
SGP95w;2017-05-30-09-01-25;2;17;0,998333176519;True;right;1,7;0,15;-1;neither;0,618000030518
SGP95w;2017-05-30-09-01-25;2;18;0,988915570465;False;neither;1,1;0,0;1;neither;0,775000095367
SGP95w;2017-05-30-09-01-25;2;19;1,1530417982;True;both;1,3;0,0;-1;both;0,352999925613
SGP95w;2017-05-30-09-01-25;2;20;0,852125061796;False;neither;1,9;0,15;-1;neither;0,648000001907
SGP95w;2017-05-30-09-01-25;2;21;1,05588303084;True;left;1,5;0,0;1;neither;1,63199996948
SGP95w;2017-05-30-09-01-25;2;22;0,925052547419;False;right;1,3;0,15;-1;neither;0,930999994278
SGP95w;2017-05-30-09-01-25;2;23;1,18468151304;True;right;1,9;0,15;1;right;0,429999828339
SGP95w;2017-05-30-09-01-25;2;24;1,07877874764;False;neither;1,5;0,15;1;neither;0,649000167847
SGP95w;2017-05-30-09-01-25;2;25;0,879017165134;True;right;1,5;0,15;1;right;0,328999996185
SGP95w;2017-05-30-09-01-25;2;26;1,04520237563;False;left;1,1;-0,15;-1;left;0,534999847412
SGP95w;2017-05-30-09-01-25;2;27;1,09020940944;True;right;1,5;0,0;1;right;0,539999961853
SGP95w;2017-05-30-09-01-25;2;28;1,09902736483;False;left;1,9;0,0;-1;left;0,688000202179
SGP95w;2017-05-30-09-01-25;2;29;0,950858297536;True;neither;1,3;-0,15;-1;neither;0,894999980927
SGP95w;2017-05-30-09-01-25;2;30;1,11613473506;False;left;1,7;0,0;1;left;0,838999986649
SGP95w;2017-05-30-09-01-25;2;31;1,05357704583;True;right;1,7;-0,15;-1;right;0,552999973297
SGP95w;2017-05-30-09-01-25;2;32;1,03223942141;False;right;1,3;-0,15;-1;neither;0,677000045776
SGP95w;2017-05-30-09-01-25;2;33;0,983404178554;True;right;1,9;0,15;1;right;2,09500002861
SGP95w;2017-05-30-09-01-25;2;34;1,0394365841;False;left;1,7;0,15;1;left;0,365999937057
SGP95w;2017-05-30-09-01-25;2;35;1,07834617451;True;left;1,5;0,15;-1;left;0,719000101089
SGP95w;2017-05-30-09-01-25;2;36;0,8805525938;False;both;1,3;-0,15;1;neither;1,08500003815
SGP95w;2017-05-30-09-01-25;2;37;1,18239170351;True;left;1,7;0,15;-1;left;1,23200011253
SGP95w;2017-05-30-09-01-25;2;38;0,821622240211;False;left;1,3;0,15;-1;left;0,369999885559
SGP95w;2017-05-30-09-01-25;2;39;1,19001562508;True;right;1,9;-0,15;-1;neither;0,733000040054
SGP95w;2017-05-30-09-01-25;2;40;0,927135255914;False;neither;1,5;0,0;1;neither;0,731000185013
SGP95w;2017-05-30-09-01-25;2;41;1,0100477216;True;right;1,1;-0,15;1;neither;0,699000120163
SGP95w;2017-05-30-09-01-25;2;42;0,818813062069;False;both;1,9;0,0;-1;both;0,730999946594
SGP95w;2017-05-30-09-01-25;2;43;1,15180511119;True;neither;1,9;-0,15;-1;neither;0,976000070572
SGP95w;2017-05-30-09-01-25;2;44;1,13837062432;False;left;1,5;-0,15;-1;left;0,466999769211
SGP95w;2017-05-30-09-01-25;2;45;1,1848033979;True;right;1,5;-0,15;1;right;0,526000022888
SGP95w;2017-05-30-09-01-25;3;1;1,14673735046;False;right;1,7;0,15;1;right;0,520999908447
SGP95w;2017-05-30-09-01-25;3;2;1,15611288324;True;left;1,3;0,0;-1;left;0,0
SGP95w;2017-05-30-09-01-25;3;3;1,06515588637;False;right;1,3;0,0;-1;right;0,490999937057
SGP95w;2017-05-30-09-01-25;3;4;0,940669534616;True;left;1,1;0,0;-1;left;0,540999889374
SGP95w;2017-05-30-09-01-25;3;5;0,869636828646;False;left;1,3;0,15;1;left;0,93499994278
SGP95w;2017-05-30-09-01-25;3;6;0,961451897926;True;neither;1,7;0,0;1;neither;0,569999933243
SGP95w;2017-05-30-09-01-25;3;7;0,844801604937;False;left;1,5;0,0;-1;neither;0,735000133514
SGP95w;2017-05-30-09-01-25;3;8;1,0250083819;True;neither;1,3;0,0;-1;neither;0,802999973297
SGP95w;2017-05-30-09-01-25;3;9;0,943263921889;False;right;1,9;0,0;1;right;0,692000150681
SGP95w;2017-05-30-09-01-25;3;10;0,878583927392;True;both;1,1;0,15;-1;left;0,398000001907
SGP95w;2017-05-30-09-01-25;3;11;0,997839208815;False;both;1,9;-0,15;1;right;0,621999979019
SGP95w;2017-05-30-09-01-25;3;12;1,19345850922;True;left;1,7;0,0;-1;neither;0,746999979019
SGP95w;2017-05-30-09-01-25;3;13;0,810788880187;False;left;1,9;0,0;-1;neither;0,914999961853
SGP95w;2017-05-30-09-01-25;3;14;0,921832127072;True;left;1,1;0,15;1;left;0,517000198364
SGP95w;2017-05-30-09-01-25;3;15;0,961504287046;False;left;1,9;-0,15;1;left;1,30399990082
SGP95w;2017-05-30-09-01-25;3;16;1,06027162324;True;left;1,7;0,15;1;neither;0,56299996376
SGP95w;2017-05-30-09-01-25;3;17;0,951763964746;False;left;1,3;0,15;-1;left;0,78200006485
SGP95w;2017-05-30-09-01-25;3;18;0,985882742716;True;right;1,3;0,0;-1;neither;1,09599995613
SGP95w;2017-05-30-09-01-25;3;19;1,18606126669;False;both;1,7;-0,15;1;neither;0,610999822617
SGP95w;2017-05-30-09-01-25;3;20;0,888949024911;True;left;1,5;-0,15;-1;left;1,76200008392
SGP95w;2017-05-30-09-01-25;3;21;0,879134300463;False;neither;1,5;0,0;-1;neither;1,27399992943
SGP95w;2017-05-30-09-01-25;3;22;0,805383972114;True;left;1,5;0,15;1;neither;0,778000116348
SGP95w;2017-05-30-09-01-25;3;23;1,15739868542;False;right;1,7;0,0;1;neither;0,848000049591
SGP95w;2017-05-30-09-01-25;3;24;1,0025179116;True;right;1,5;0,0;1;neither;0,519999980927
SGP95w;2017-05-30-09-01-25;3;25;0,986863553493;False;left;1,9;0,15;-1;neither;0,885999917984
SGP95w;2017-05-30-09-01-25;3;26;0,982532257361;True;left;1,5;0,15;1;neither;0,556999921799
SGP95w;2017-05-30-09-01-25;3;27;0,880761901321;False;right;1,5;-0,15;1;right;0,496000051498
SGP95w;2017-05-30-09-01-25;3;28;0,942236395928;True;left;1,7;-0,15;-1;neither;0,547000169754
SGP95w;2017-05-30-09-01-25;3;29;1,06819780495;False;left;1,7;0,0;-1;neither;0,596999883652
SGP95w;2017-05-30-09-01-25;3;30;0,944956905646;True;both;1,5;-0,15;-1;neither;0,604000091553
SGP95w;2017-05-30-09-01-25;3;31;1,13765024476;False;neither;1,3;-0,15;-1;neither;0,567999839783
SGP95w;2017-05-30-09-01-25;3;32;0,985817823803;True;left;1,5;0,0;1;neither;0,990000009537
SGP95w;2017-05-30-09-01-25;3;33;0,802763645229;False;both;1,5;0,0;1;left;0,442999839783
SGP95w;2017-05-30-09-01-25;3;34;0,850007892976;True;neither;1,9;0,15;1;neither;0,513000011444
SGP95w;2017-05-30-09-01-25;3;35;0,927310855934;False;both;1,1;-0,15;-1;both;0,692000150681
SGP95w;2017-05-30-09-01-25;3;36;1,05868791076;True;right;1,9;-0,15;-1;right;0,416000127792
SGP95w;2017-05-30-09-01-25;3;37;1,07108882744;False;left;1,9;0,15;-1;neither;0,634000062943
SGP95w;2017-05-30-09-01-25;3;38;1,02485137673;True;both;1,3;0,0;-1;both;0,822999954224
SGP95w;2017-05-30-09-01-25;3;39;1,09639247649;False;left;1,5;-0,15;-1;left;0,50400018692
SGP95w;2017-05-30-09-01-25;3;40;1,02975802199;True;right;1,7;0,0;1;right;0,440999984741
SGP95w;2017-05-30-09-01-25;3;41;1,12929096301;False;neither;1,5;-0,15;1;neither;0,531999826431
SGP95w;2017-05-30-09-01-25;3;42;1,09165517462;True;neither;1,7;-0,15;-1;neither;0,898000001907
SGP95w;2017-05-30-09-01-25;3;43;1,17832601681;False;left;1,3;-0,15;1;neither;0,52899980545
SGP95w;2017-05-30-09-01-25;3;44;0,836102154569;True;right;1,1;-0,15;-1;neither;0,52799987793
SGP95w;2017-05-30-09-01-25;3;45;0,979792334621;False;right;1,5;0,0;-1;right;0,549999952316
SGP95w;2017-05-30-09-01-25;4;1;1,11176656728;True;right;1,7;0,15;1;right;0,457000017166
SGP95w;2017-05-30-09-01-25;4;2;1,09905089334;False;left;1,3;0,0;-1;neither;0,696000099182
SGP95w;2017-05-30-09-01-25;4;3;0,849101960316;True;right;1,3;0,0;-1;right;0,408999919891
SGP95w;2017-05-30-09-01-25;4;4;0,86268520836;False;left;1,1;0,0;-1;left;1,52899980545
SGP95w;2017-05-30-09-01-25;4;5;1,09749132027;True;left;1,3;0,15;-1;left;0,418999910355
SGP95w;2017-05-30-09-01-25;4;6;0,983554087014;False;neither;1,7;0,0;-1;neither;0,582000017166
SGP95w;2017-05-30-09-01-25;4;7;1,09013578294;True;left;1,5;0,0;-1;neither;0,473999977112
SGP95w;2017-05-30-09-01-25;4;8;0,920394890696;False;neither;1,3;0,0;1;neither;0,428999900818
SGP95w;2017-05-30-09-01-25;4;9;0,997271616898;True;right;1,9;0,0;-1;right;0,592000007629
SGP95w;2017-05-30-09-01-25;4;10;0,907234223394;False;both;1,1;0,15;-1;both;0,353000164032
SGP95w;2017-05-30-09-01-25;4;11;1,1785078069;True;both;1,9;-0,15;-1;neither;0,809000015259
SGP95w;2017-05-30-09-01-25;4;12;1,03082935442;False;left;1,7;0,0;-1;neither;0,428999900818
SGP95w;2017-05-30-09-01-25;4;13;0,970544345306;True;left;1,9;0,0;-1;neither;0,667000055313
SGP95w;2017-05-30-09-01-25;4;14;0,8659923556;False;left;1,1;0,15;-1;neither;0,928999900818
SGP95w;2017-05-30-09-01-25;4;15;0,90390240336;True;left;1,9;-0,15;-1;neither;0,536000013351
SGP95w;2017-05-30-09-01-25;4;16;0,898500418424;False;left;1,7;0,15;1;neither;1,70399999619
SGP95w;2017-05-30-09-01-25;4;17;0,886428248147;True;left;1,3;0,15;-1;neither;0,223999977112
SGP95w;2017-05-30-09-01-25;4;18;0,811509861822;False;right;1,3;0,0;-1;right;2,74400019646
SGP95w;2017-05-30-09-01-25;4;19;0,969057491583;True;both;1,7;-0,15;-1;neither;0,842000007629
SGP95w;2017-05-30-09-01-25;4;20;1,13888115737;False;left;1,5;-0,15;-1;neither;0,432999849319
SGP95w;2017-05-30-09-01-25;4;21;0,845521715071;True;neither;1,5;0,0;-1;neither;0,603000164032
SGP95w;2017-05-30-09-01-25;4;22;1,02795402755;False;left;1,5;0,15;-1;neither;0,541999816895
SGP95w;2017-05-30-09-01-25;4;23;0,928963247108;True;right;1,7;0,0;1;neither;0,68799996376
SGP95w;2017-05-30-09-01-25;4;24;1,00258781945;False;right;1,5;0,0;-1;neither;0,430000066757
SGP95w;2017-05-30-09-01-25;4;25;0,923452121405;True;left;1,9;0,15;1;neither;0,56500005722
SGP95w;2017-05-30-09-01-25;4;26;1,10744741614;False;left;1,5;0,15;1;neither;0,496999979019
SGP95w;2017-05-30-09-01-25;4;27;1,13151282366;True;right;1,5;-0,15;-1;neither;0,436000108719
SGP95w;2017-05-30-09-01-25;4;28;1,11722093784;False;left;1,7;-0,15;-1;neither;0,518000125885
SGP95w;2017-05-30-09-01-25;4;29;1,04017584025;True;left;1,7;0,0;1;neither;0,519999980927
SGP95w;2017-05-30-09-01-25;4;30;0,92277682914;False;both;1,5;-0,15;1;neither;0,625999927521
SGP95w;2017-05-30-09-01-25;4;31;0,978720868149;True;neither;1,3;-0,15;1;neither;0,56200003624
SGP95w;2017-05-30-09-01-25;4;32;1,16455522388;False;left;1,5;0,0;-1;neither;1,01800012589
SGP95w;2017-05-30-09-01-25;4;33;0,918145670174;True;both;1,5;0,0;-1;both;3,41499996185
SGP95w;2017-05-30-09-01-25;4;34;0,990017798731;False;neither;1,9;0,15;1;neither;0,635999917984
SGP95w;2017-05-30-09-01-25;4;35;0,944066201205;True;both;1,1;-0,15;-1;neither;0,639000177383
SGP95w;2017-05-30-09-01-25;4;36;1,07916761018;False;right;1,9;-0,15;1;neither;1,08200001717
SGP95w;2017-05-30-09-01-25;4;37;1,1761857739;True;left;1,9;0,15;-1;neither;0,548000097275
SGP95w;2017-05-30-09-01-25;4;38;0,811611784233;False;both;1,3;0,0;1;both;0,569999933243
SGP95w;2017-05-30-09-01-25;4;39;0,840180661421;True;left;1,5;-0,15;-1;neither;0,486000061035
SGP95w;2017-05-30-09-01-25;4;40;1,18400273656;False;right;1,7;0,0;-1;neither;0,449999809265
SGP95w;2017-05-30-09-01-25;4;41;1,1251381242;True;neither;1,5;-0,15;1;neither;0,521999835968
SGP95w;2017-05-30-09-01-25;4;42;1,00749990205;False;neither;1,7;-0,15;-1;neither;0,576999902725
SGP95w;2017-05-30-09-01-25;4;43;0,983471223864;True;left;1,3;-0,15;-1;neither;0,522000074387
SGP95w;2017-05-30-09-01-25;4;44;1,12104097153;False;right;1,1;-0,15;-1;neither;0,430000066757
SGP95w;2017-05-30-09-01-25;4;45;0,967554957481;True;right;1,5;0,0;-1;neither;0,378999948502
SGP95w;2017-05-30-09-01-25;5;1;1,12619748176;False;left;1,9;0,0;-1;neither;0,485000133514
SGP95w;2017-05-30-09-01-25;5;2;0,98884769185;True;both;1,9;-0,15;-1;neither;0,618000030518
SGP95w;2017-05-30-09-01-25;5;3;1,06527528942;False;left;1,5;0,0;-1;neither;0,353999853134
SGP95w;2017-05-30-09-01-25;5;4;0,908380069839;True;left;1,5;0,0;1;neither;2,23600006104
SGP95w;2017-05-30-09-01-25;5;5;1,09217619344;False;right;1,9;0,15;-1;neither;0,694000005722
SGP95w;2017-05-30-09-01-25;5;6;1,0490283456;True;right;1,1;-0,15;1;neither;0,576999902725
SGP95w;2017-05-30-09-01-25;5;7;0,949013861181;False;left;1,9;-0,15;1;neither;0,886999845505
SGP95w;2017-05-30-09-01-25;5;8;1,16608012343;True;right;1,3;0,0;1;right;0,668999910355
SGP95w;2017-05-30-09-01-25;5;9;1,11101443132;False;left;1,3;-0,15;-1;left;0,590000152588
SGP95w;2017-05-30-09-01-25;5;10;0,969761092346;True;left;1,1;0,0;-1;neither;0,506000041962
SGP95w;2017-05-30-09-01-25;5;11;0,977488402591;False;left;1,7;-0,15;1;neither;0,368999958038
SGP95w;2017-05-30-09-01-25;5;12;1,15310876227;True;right;1,9;-0,15;1;right;0,726000070572
SGP95w;2017-05-30-09-01-25;5;13;0,975052311971;False;left;1,9;0,0;-1;left;0,434000015259
SGP95w;2017-05-30-09-01-25;5;14;0,990217466641;True;right;1,1;-0,15;1;neither;0,781000137329
SGP95w;2017-05-30-09-01-25;5;15;0,982421735806;False;both;1,7;-0,15;1;both;0,557000160217
SGP95w;2017-05-30-09-01-25;5;16;0,839027074665;True;right;1,3;-0,15;1;right;0,569999933243
SGP95w;2017-05-30-09-01-25;5;17;1,05716946928;False;right;1,9;-0,15;1;neither;0,384999990463
SGP95w;2017-05-30-09-01-25;5;18;0,981395031718;True;left;1,5;0,15;1;left;0,359000205994
SGP95w;2017-05-30-09-01-25;5;19;0,993639529602;False;both;1,5;0,15;1;both;0,403000116348
SGP95w;2017-05-30-09-01-25;5;20;1,166990231;True;both;1,7;0,0;1;left;0,464999914169
SGP95w;2017-05-30-09-01-25;5;21;0,94632474279;False;neither;1,3;0,15;-1;neither;0,578999996185
SGP95w;2017-05-30-09-01-25;5;22;0,888134304423;True;right;1,7;-0,15;1;neither;0,460000038147
SGP95w;2017-05-30-09-01-25;5;23;1,06813450886;False;neither;1,7;-0,15;-1;neither;0,612999916077
SGP95w;2017-05-30-09-01-25;5;24;1,17179538999;True;left;1,3;0,0;-1;neither;0,378999948502
SGP95w;2017-05-30-09-01-25;5;25;1,09296324829;False;right;1,3;-0,15;1;neither;0,623000144958
SGP95w;2017-05-30-09-01-25;5;26;0,935687389881;True;left;1,9;0,15;-1;neither;0,535000085831
SGP95w;2017-05-30-09-01-25;5;27;0,975364132845;False;left;1,7;0,15;1;neither;0,571000099182
SGP95w;2017-05-30-09-01-25;5;28;1,06466750173;True;neither;1,5;0,15;-1;neither;0,466000080109
SGP95w;2017-05-30-09-01-25;5;29;0,953701860528;False;left;1,7;0,15;1;neither;0,592000007629
SGP95w;2017-05-30-09-01-25;5;30;1,04997585234;True;left;1,7;0,0;-1;neither;0,65700006485
SGP95w;2017-05-30-09-01-25;5;31;0,88802073412;False;neither;1,7;0,15;1;neither;0,506999969482
SGP95w;2017-05-30-09-01-25;5;32;1,16973193449;True;neither;1,7;0,0;1;neither;0,445999860764
SGP95w;2017-05-30-09-01-25;5;33;0,826211616737;False;neither;1,9;-0,15;-1;neither;0,519999980927
SGP95w;2017-05-30-09-01-25;5;34;1,05782966263;True;right;1,7;0,15;1;neither;0,507000207901
SGP95w;2017-05-30-09-01-25;5;35;1,06028272355;False;both;1,9;0,15;1;both;2,78600001335
SGP95w;2017-05-30-09-01-25;5;36;0,936539710672;True;neither;1,5;0,0;1;neither;0,961999893188
SGP95w;2017-05-30-09-01-25;5;37;0,998689733831;False;left;1,5;-0,15;1;neither;0,395999908447
SGP95w;2017-05-30-09-01-25;5;38;0,801490046005;True;neither;1,1;0,15;-1;neither;0,751999855042
SGP95w;2017-05-30-09-01-25;5;39;1,03235716448;False;left;1,9;0,15;1;neither;0,676000118256
SGP95w;2017-05-30-09-01-25;5;40;0,968591804943;True;neither;1,3;-0,15;-1;neither;0,567999839783
SGP95w;2017-05-30-09-01-25;5;41;1,07046265722;False;right;1,3;0,0;-1;neither;0,332000017166
SGP95w;2017-05-30-09-01-25;5;42;1,15765875655;True;left;1,3;0,15;1;neither;0,382999897003
SGP95w;2017-05-30-09-01-25;5;43;0,998782424573;False;right;1,5;0,15;-1;neither;0,444999933243
SGP95w;2017-05-30-09-01-25;5;44;1,17316444372;True;right;1,5;-0,15;-1;right;0,401999950409
SGP95w;2017-05-30-09-01-25;5;45;0,804567103726;False;right;1,5;0,0;-1;neither;0,43700003624
SGP95w;2017-05-30-09-01-25;6;1;0,945205261605;True;left;1,9;0,0;-1;neither;0,360999822617
SGP95w;2017-05-30-09-01-25;6;2;1,11837943658;False;both;1,9;-0,15;1;both;0,361999988556
SGP95w;2017-05-30-09-01-25;6;3;1,1197720927;True;left;1,5;0,0;-1;neither;0,450000047684
SGP95w;2017-05-30-09-01-25;6;4;1,18911245149;False;left;1,5;0,0;-1;neither;0,545000076294
SGP95w;2017-05-30-09-01-25;6;5;1,02477777536;True;right;1,9;0,15;1;right;0,779000043869
SGP95w;2017-05-30-09-01-25;6;6;0,986904495272;False;right;1,1;-0,15;1;neither;0,516000032425
SGP95w;2017-05-30-09-01-25;6;7;0,901767400969;True;left;1,9;-0,15;1;neither;0,629999876022
SGP95w;2017-05-30-09-01-25;6;8;0,915831549052;False;right;1,3;0,0;1;right;1,15299987793
SGP95w;2017-05-30-09-01-25;6;9;1,11829607969;True;left;1,3;-0,15;1;neither;0,522000074387
SGP95w;2017-05-30-09-01-25;6;10;0,836036156647;False;left;1,1;0,0;1;neither;0,424000024796
SGP95w;2017-05-30-09-01-25;6;11;0,888710680281;True;left;1,7;-0,15;-1;neither;0,537999868393
SGP95w;2017-05-30-09-01-25;6;12;1,19527153984;False;right;1,9;-0,15;-1;neither;0,523999929428
SGP95w;2017-05-30-09-01-25;6;13;1,06330003958;True;left;1,9;0,0;1;neither;0,513000011444
SGP95w;2017-05-30-09-01-25;6;14;0,959357247617;False;right;1,1;-0,15;-1;neither;0,432000160217
SGP95w;2017-05-30-09-01-25;6;15;1,19063232159;True;both;1,7;-0,15;1;neither;0,360999822617
SGP95w;2017-05-30-09-01-25;6;16;1,03399416512;False;right;1,3;-0,15;1;right;0,522000074387
SGP95w;2017-05-30-09-01-25;6;17;0,983020222047;True;right;1,9;-0,15;-1;right;2,54500007629
SGP95w;2017-05-30-09-01-25;6;18;0,87004385878;False;left;1,5;0,15;1;neither;0,355000019073
SGP95w;2017-05-30-09-01-25;6;19;0,883944237368;True;both;1,5;0,15;-1;both;1,31699991226
SGP95w;2017-05-30-09-01-25;6;20;1,08697161985;False;both;1,7;0,0;1;both;0,384999990463
SGP95w;2017-05-30-09-01-25;6;21;1,03821048159;True;neither;1,3;0,15;-1;neither;0,508999824524
SGP95w;2017-05-30-09-01-25;6;22;1,05543708202;False;right;1,7;-0,15;1;right;0,598000049591
SGP95w;2017-05-30-09-01-25;6;23;0,970563138364;True;neither;1,7;-0,15;1;neither;0,454999923706
SGP95w;2017-05-30-09-01-25;6;24;1,07595884678;False;left;1,3;0,0;1;neither;0,371999979019
SGP95w;2017-05-30-09-01-25;6;25;0,859238979001;True;right;1,3;-0,15;-1;neither;0,542999982834
SGP95w;2017-05-30-09-01-25;6;26;1,19123363606;False;left;1,9;0,15;1;neither;0,578999996185
SGP95w;2017-05-30-09-01-25;6;27;0,85755253004;True;left;1,7;0,15;-1;neither;0,391999959946
SGP95w;2017-05-30-09-01-25;6;28;1,12677175275;False;neither;1,5;0,15;1;neither;0,635999917984
SGP95w;2017-05-30-09-01-25;6;29;1,1322516441;True;left;1,7;0,15;-1;neither;0,552999973297
SGP95w;2017-05-30-09-01-25;6;30;0,809784329496;False;left;1,7;0,0;1;neither;0,450999975204
SGP95w;2017-05-30-09-01-25;6;31;1,06579030385;True;neither;1,7;0,15;-1;neither;0,522000074387
SGP95w;2017-05-30-09-01-25;6;32;1,17140225576;False;neither;1,7;0,0;-1;neither;0,449999809265
SGP95w;2017-05-30-09-01-25;6;33;0,932746173467;True;neither;1,9;-0,15;-1;neither;0,861000061035
SGP95w;2017-05-30-09-01-25;6;34;1,02612289786;False;right;1,7;0,15;-1;right;0,513000011444
SGP95w;2017-05-30-09-01-25;6;35;1,06283801568;True;both;1,9;0,15;-1;right;6,1819999218
SGP95w;2017-05-30-09-01-25;6;36;0,941064668503;False;neither;1,5;0,0;1;neither;1,39800000191
SGP95w;2017-05-30-09-01-25;6;37;1,10525825368;True;left;1,5;-0,15;-1;neither;0,460999965668
SGP95w;2017-05-30-09-01-25;6;38;1,10697937228;False;neither;1,1;0,15;1;neither;0,519999980927
SGP95w;2017-05-30-09-01-25;6;39;0,823228930768;True;left;1,9;0,15;-1;neither;1,14299988747
SGP95w;2017-05-30-09-01-25;6;40;1,17570933281;False;neither;1,3;-0,15;1;neither;0,610000133514
SGP95w;2017-05-30-09-01-25;6;41;0,827141688644;True;right;1,3;0,0;1;neither;0,408999919891
SGP95w;2017-05-30-09-01-25;6;42;0,858561845928;False;left;1,3;0,15;1;left;0,668999910355
SGP95w;2017-05-30-09-01-25;6;43;1,06757165504;True;right;1,5;0,15;1;right;0,363999843597
SGP95w;2017-05-30-09-01-25;6;44;0,998159507956;False;right;1,5;-0,15;-1;both;0,365999937057
SGP95w;2017-05-30-09-01-25;6;45;1,01635332559;True;right;1,5;0,0;1;neither;0,555000066757
SGP95w;2017-05-30-09-01-25;7;1;1,1304533962;False;neither;1,5;0,0;-1;neither;0,541000127792
SGP95w;2017-05-30-09-01-25;7;2;0,867080822722;True;right;1,9;0,15;-1;neither;0,697000026703
SGP95w;2017-05-30-09-01-25;7;3;1,14939451977;False;right;1,5;-0,15;-1;both;0,467000007629
SGP95w;2017-05-30-09-01-25;7;4;0,840257707172;True;neither;1,9;0,15;1;neither;0,471999883652
SGP95w;2017-05-30-09-01-25;7;5;0,958131910751;False;right;1,5;0,0;-1;both;4,64700007439
SGP95w;2017-05-30-09-01-25;7;6;0,905720878935;True;left;1,9;0,15;-1;neither;0,624000072479
SGP95w;2017-05-30-09-01-25;7;7;0,875479188119;False;both;1,5;0,15;1;both;0,320999860764
SGP95w;2017-05-30-09-01-25;7;8;1,04237559623;True;left;1,9;-0,15;-1;neither;0,480000019073
SGP95w;2017-05-30-09-01-25;7;9;1,16267562393;False;left;1,7;0,15;-1;neither;1,34099984169
SGP95w;2017-05-30-09-01-25;7;10;1,12275900369;True;right;1,1;0,15;-1;neither;0,513999938965
SGP95w;2017-05-30-09-01-25;7;11;0,880203122304;False;left;1,5;0,15;-1;neither;0,598999977112
SGP95w;2017-05-30-09-01-25;7;12;0,997501027139;True;right;1,5;0,15;1;neither;0,358000040054
SGP95w;2017-05-30-09-01-25;7;13;0,94018979174;False;left;1,3;0,15;1;neither;0,487999916077
SGP95w;2017-05-30-09-01-25;7;14;1,15761267916;True;both;1,7;-0,15;1;neither;0,480000019073
SGP95w;2017-05-30-09-01-25;7;15;0,925816503722;False;right;1,3;0,0;-1;neither;0,0
SGP95w;2017-05-30-09-01-25;7;16;0,860378910292;True;both;1,1;0,15;1;neither;0,408999919891
SGP95w;2017-05-30-09-01-25;7;17;0,979656123337;False;both;1,5;-0,15;1;neither;0,483000040054
SGP95w;2017-05-30-09-01-25;7;18;1,12840496222;True;neither;1,7;0,0;-1;neither;0,555000066757
SGP95w;2017-05-30-09-01-25;7;19;0,932008501083;False;right;1,1;-0,15;1;neither;0,517000198364
SGP95w;2017-05-30-09-01-25;7;20;0,809382855167;True;neither;1,3;-0,15;-1;neither;0,626000165939
SGP95w;2017-05-30-09-01-25;7;21;0,830554025083;False;right;1,3;0,0;-1;neither;0,663000106812
SGP95w;2017-05-30-09-01-25;7;22;1,14727961934;True;left;1,7;0,15;-1;neither;0,389000177383
SGP95w;2017-05-30-09-01-25;7;23;0,947694618674;False;right;1,7;0,15;1;neither;0,703000068665
SGP95w;2017-05-30-09-01-25;7;24;0,843065894476;True;neither;1,7;0,15;-1;neither;0,492000102997
SGP95w;2017-05-30-09-01-25;7;25;1,17972747266;False;neither;1,3;0,15;1;neither;0,561000108719
SGP95w;2017-05-30-09-01-25;7;26;1,11332391301;True;left;1,3;0,15;1;neither;0,398000001907
SGP95w;2017-05-30-09-01-25;7;27;1,18335545007;False;right;1,1;0,0;-1;neither;0,474999904633
SGP95w;2017-05-30-09-01-25;7;28;1,1354697118;True;right;1,3;0,15;-1;neither;0,47000002861
SGP95w;2017-05-30-09-01-25;7;29;0,961360423457;False;both;1,1;0,0;-1;neither;0,93700003624
SGP95w;2017-05-30-09-01-25;7;30;0,800303764356;True;left;1,9;0,0;1;neither;0,361999988556
SGP95w;2017-05-30-09-01-25;7;31;1,08162787769;False;left;1,7;0,0;1;neither;0,351000070572
SGP95w;2017-05-30-09-01-25;7;32;1,12467237646;True;left;1,5;0,15;-1;neither;0,425999879837
SGP95w;2017-05-30-09-01-25;7;33;0,813805791681;False;neither;1,1;0,0;1;neither;0,376999855042
SGP95w;2017-05-30-09-01-25;7;34;1,0449601253;True;neither;1,5;-0,15;-1;neither;0,523000001907
SGP95w;2017-05-30-09-01-25;7;35;1,05273916911;False;right;1,9;0,0;-1;neither;0,608999967575
SGP95w;2017-05-30-09-01-25;7;36;0,977397415258;True;left;1,9;-0,15;-1;neither;0,398000001907
SGP95w;2017-05-30-09-01-25;7;37;0,979286954634;False;right;1,5;-0,15;-1;neither;0,387000083923
SGP95w;2017-05-30-09-01-25;7;38;0,982754568954;True;left;1,1;-0,15;1;neither;0,476000070572
SGP95w;2017-05-30-09-01-25;7;39;1,13909621399;False;right;1,9;0,0;-1;neither;0,429000139236
SGP95w;2017-05-30-09-01-25;7;40;0,938002469239;True;both;1,9;0,0;1;neither;0,546999931335
SGP95w;2017-05-30-09-01-25;7;41;1,14076071382;False;right;1,9;0,15;-1;neither;0,53200006485
SGP95w;2017-05-30-09-01-25;7;42;0,982850435347;True;left;1,3;-0,15;-1;left;2,49800014496
SGP95w;2017-05-30-09-01-25;7;43;0,857962248716;False;neither;1,3;0,0;-1;neither;0,50200009346
SGP95w;2017-05-30-09-01-25;7;44;0,810810376351;True;left;1,1;-0,15;-1;neither;0,351000070572
SGP95w;2017-05-30-09-01-25;7;45;0,936620324946;False;right;1,3;0,15;1;neither;0,470999956131
SGP95w;2017-05-30-09-01-25;8;1;1,14231920696;True;neither;1,5;0,0;-1;neither;0,798000097275
SGP95w;2017-05-30-09-01-25;8;2;0,888583608768;False;right;1,9;0,15;-1;neither;0,96799993515
SGP95w;2017-05-30-09-01-25;8;3;1,1488879131;True;right;1,5;-0,15;1;neither;0,585999965668
SGP95w;2017-05-30-09-01-25;8;4;0,820159144508;False;neither;1,9;0,15;-1;neither;0,629999876022
SGP95w;2017-05-30-09-01-25;8;5;0,91889680846;True;right;1,5;0,0;-1;neither;2,4509999752
SGP95w;2017-05-30-09-01-25;8;6;0,985474255684;False;left;1,9;0,15;1;neither;0,450000047684
SGP95w;2017-05-30-09-01-25;8;7;1,10098730796;True;both;1,5;0,15;1;neither;0,996000051498
SGP95w;2017-05-30-09-01-25;8;8;0,972705280993;False;left;1,9;-0,15;1;left;0,367000102997
SGP95w;2017-05-30-09-01-25;8;9;0,849807369875;True;left;1,7;0,15;-1;neither;0,378999948502
SGP95w;2017-05-30-09-01-25;8;10;1,06167744005;False;right;1,1;0,15;-1;neither;0,482999801636
SGP95w;2017-05-30-09-01-25;8;11;1,10379503289;True;left;1,5;0,15;-1;neither;0,405999898911
SGP95w;2017-05-30-09-01-25;8;12;1,04867438238;False;right;1,5;0,15;-1;neither;0,433000087738
SGP95w;2017-05-30-09-01-25;8;13;1,10389284225;True;left;1,3;0,15;-1;neither;0,374000072479
SGP95w;2017-05-30-09-01-25;8;14;1,05292148422;False;both;1,7;-0,15;-1;neither;0,606999874115
SGP95w;2017-05-30-09-01-25;8;15;1,19725597648;True;right;1,3;0,0;-1;neither;0,365999937057
SGP95w;2017-05-30-09-01-25;8;16;1,04349106055;False;both;1,1;0,15;1;neither;0,370000123978
SGP95w;2017-05-30-09-01-25;8;17;1,06577623058;True;both;1,5;-0,15;-1;both;0,375
SGP95w;2017-05-30-09-01-25;8;18;0,937672480367;False;neither;1,7;0,0;-1;neither;2,10099983215
SGP95w;2017-05-30-09-01-25;8;19;0,972763533817;True;right;1,1;-0,15;1;neither;0,488999843597
SGP95w;2017-05-30-09-01-25;8;20;1,01015764389;False;neither;1,3;-0,15;-1;neither;0,507999897003
SGP95w;2017-05-30-09-01-25;8;21;0,9396555165;True;right;1,3;0,0;-1;neither;0,556999921799
SGP95w;2017-05-30-09-01-25;8;22;1,0168319814;False;left;1,7;0,15;1;left;0,380000114441
SGP95w;2017-05-30-09-01-25;8;23;0,849766229764;True;right;1,7;0,15;-1;both;1,03099989891
SGP95w;2017-05-30-09-01-25;8;24;1,04095865004;False;neither;1,7;0,15;1;neither;0,931999921799
SGP95w;2017-05-30-09-01-25;8;25;1,15708428991;True;neither;1,3;0,15;-1;neither;0,467000007629
SGP95w;2017-05-30-09-01-25;8;26;1,08179032295;False;left;1,3;0,15;1;both;1,57999992371
SGP95w;2017-05-30-09-01-25;8;27;0,805352411377;True;right;1,1;0,0;-1;right;0,441999912262
SGP95w;2017-05-30-09-01-25;8;28;0,959638958228;False;right;1,3;0,15;-1;right;0,489000082016
SGP95w;2017-05-30-09-01-25;8;29;1,14710803072;True;both;1,1;0,0;-1;neither;0,384999990463
SGP95w;2017-05-30-09-01-25;8;30;1,03539283645;False;left;1,9;0,0;1;neither;0,644000053406
SGP95w;2017-05-30-09-01-25;8;31;1,03885760322;True;left;1,7;0,0;-1;neither;0,496000051498
SGP95w;2017-05-30-09-01-25;8;32;0,964228845284;False;left;1,5;0,15;-1;neither;0,429999828339
SGP95w;2017-05-30-09-01-25;8;33;1,08670017162;True;neither;1,1;0,0;1;neither;0,482000112534
SGP95w;2017-05-30-09-01-25;8;34;1,02378919586;False;neither;1,5;-0,15;-1;neither;0,467000007629
SGP95w;2017-05-30-09-01-25;8;35;0,835929979864;True;right;1,9;0,0;1;neither;0,873000144958
SGP95w;2017-05-30-09-01-25;8;36;0,870175390327;False;left;1,9;-0,15;-1;neither;0,566999912262
SGP95w;2017-05-30-09-01-25;8;37;0,879033922336;True;right;1,5;-0,15;-1;neither;0,379999876022
SGP95w;2017-05-30-09-01-25;8;38;1,06077683213;False;left;1,1;-0,15;1;neither;0,565999984741
SGP95w;2017-05-30-09-01-25;8;39;0,975422176769;True;right;1,9;0,0;-1;neither;0,574000120163
SGP95w;2017-05-30-09-01-25;8;40;1,05834952863;False;both;1,9;0,0;1;both;0,578999996185
SGP95w;2017-05-30-09-01-25;8;41;0,976029799829;True;right;1,9;0,15;1;neither;0,449000120163
SGP95w;2017-05-30-09-01-25;8;42;1,05918672597;False;left;1,3;-0,15;1;neither;0,503999948502
SGP95w;2017-05-30-09-01-25;8;43;1,15014608346;True;neither;1,3;0,0;1;neither;0,43499994278
SGP95w;2017-05-30-09-01-25;8;44;1,09246954183;False;left;1,1;-0,15;-1;neither;0,681999921799
SGP95w;2017-05-30-09-01-25;8;45;1,05575106516;True;right;1,3;0,15;-1;neither;0,509999990463
SGP95w;2017-05-30-09-01-25;9;1;1,15363104257;False;left;1,1;0,15;-1;neither;0,444999933243
SGP95w;2017-05-30-09-01-25;9;2;0,969755175513;True;left;1,7;-0,15;-1;neither;0,421000003815
SGP95w;2017-05-30-09-01-25;9;3;0,9678352997;False;both;1,9;0,15;-1;neither;3,84600019455
SGP95w;2017-05-30-09-01-25;9;4;0,801765606308;True;right;1,1;-0,15;1;neither;0,444000005722
SGP95w;2017-05-30-09-01-25;9;5;1,10099219511;False;left;1,9;0,15;1;neither;0,385999917984
SGP95w;2017-05-30-09-01-25;9;6;0,964688479892;True;right;1,5;0,15;1;right;1,37199997902
SGP95w;2017-05-30-09-01-25;9;7;0,848692149121;False;left;1,5;-0,15;1;neither;0,400000095367
SGP95w;2017-05-30-09-01-25;9;8;0,917165038753;True;left;1,7;0,15;-1;neither;0,386000156403
SGP95w;2017-05-30-09-01-25;9;9;0,901367953428;False;right;1,9;-0,15;1;neither;0,444999933243
SGP95w;2017-05-30-09-01-25;9;10;0,89709172755;True;left;1,1;-0,15;-1;both;0,368000030518
SGP95w;2017-05-30-09-01-25;9;11;1,12281058768;False;both;1,3;-0,15;-1;both;0,392999887466
SGP95w;2017-05-30-09-01-25;9;12;0,911198187011;True;right;1,5;0,0;-1;right;0,765000104904
SGP95w;2017-05-30-09-01-25;9;13;0,830899815769;False;right;1,1;0,0;-1;right;0,442000150681
SGP95w;2017-05-30-09-01-25;9;14;0,920550830669;True;left;1,9;0,0;-1;both;1,55200004578
SGP95w;2017-05-30-09-01-25;9;15;1,16946879292;False;left;1,5;0,15;1;neither;0,366999864578
SGP95w;2017-05-30-09-01-25;9;16;0,976707491422;True;both;1,3;0,0;-1;both;0,364000082016
SGP95w;2017-05-30-09-01-25;9;17;1,07505841599;False;neither;1,9;-0,15;1;neither;0,440999984741
SGP95w;2017-05-30-09-01-25;9;18;1,10120323888;True;right;1,5;-0,15;-1;neither;0,523000001907
SGP95w;2017-05-30-09-01-25;9;19;1,14492536055;False;left;1,9;0,15;1;left;0,463999986649
SGP95w;2017-05-30-09-01-25;9;20;1,00837946696;True;left;1,5;-0,15;-1;both;0,475999832153
SGP95w;2017-05-30-09-01-25;9;21;0,909785488558;False;left;1,3;0,0;-1;both;0,708999872208
SGP95w;2017-05-30-09-01-25;9;22;1,06353005383;True;neither;1,7;-0,15;1;neither;0,557999849319
SGP95w;2017-05-30-09-01-25;9;23;0,849002446687;False;neither;1,3;0,15;-1;neither;0,370000123978
SGP95w;2017-05-30-09-01-25;9;24;1,136199305;True;right;1,1;-0,15;1;both;0,65499997139
SGP95w;2017-05-30-09-01-25;9;25;0,890476459319;False;neither;1,1;0,0;1;neither;0,5
SGP95w;2017-05-30-09-01-25;9;26;1,05684173435;True;neither;1,7;0,15;-1;neither;0,508000135422
SGP95w;2017-05-30-09-01-25;9;27;0,823785210624;False;left;1,7;0,0;1;both;0,657999992371
SGP95w;2017-05-30-09-01-25;9;28;1,16232684913;True;left;1,5;0,0;-1;neither;0,396999835968
SGP95w;2017-05-30-09-01-25;9;29;1,00512437507;False;right;1,1;0,15;1;neither;0,578999996185
SGP95w;2017-05-30-09-01-25;9;30;0,976609796648;True;left;1,5;0,15;1;left;2,63300013542
SGP95w;2017-05-30-09-01-25;9;31;1,07533702928;False;left;1,9;-0,15;1;neither;0,450000047684
SGP95w;2017-05-30-09-01-25;9;32;0,900581275541;True;neither;1,1;-0,15;-1;neither;0,59500002861
SGP95w;2017-05-30-09-01-25;9;33;1,01933144846;False;right;1,9;0,0;-1;neither;0,444999933243
SGP95w;2017-05-30-09-01-25;9;34;0,960720947949;True;left;1,3;0,0;-1;neither;0,384000062943
SGP95w;2017-05-30-09-01-25;9;35;1,01776798414;False;right;1,1;0,15;1;both;2,27900004387
SGP95w;2017-05-30-09-01-25;9;36;1,04599828231;True;right;1,7;0,0;-1;both;0,318000078201
SGP95w;2017-05-30-09-01-25;9;37;1,01120718083;False;right;1,7;-0,15;1;neither;0,523000001907
SGP95w;2017-05-30-09-01-25;9;38;1,0981500051;True;right;1,9;0,15;1;right;0,384999990463
SGP95w;2017-05-30-09-01-25;9;39;1,16613949964;False;both;1,1;0,0;-1;both;0,325999975204
SGP95w;2017-05-30-09-01-25;9;40;0,83055820613;True;neither;1,3;-0,15;-1;neither;0,395999908447
SGP95w;2017-05-30-09-01-25;9;41;0,907638262342;False;right;1,9;0,15;-1;neither;0,520999908447
SGP95w;2017-05-30-09-01-25;9;42;1,03328884289;True;left;1,3;0,15;-1;neither;0,469000101089
SGP95w;2017-05-30-09-01-25;9;43;0,808096402374;False;both;1,5;-0,15;1;neither;0,353999853134
SGP95w;2017-05-30-09-01-25;9;44;0,82253517198;True;both;1,1;0,15;1;neither;0,470999956131
SGP95w;2017-05-30-09-01-25;9;45;1,06529781105;False;neither;1,5;-0,15;-1;neither;0,358000040054
SGP95w;2017-05-30-09-01-25;10;1;1,11663036906;True;left;1,1;0,15;1;neither;0,578999996185
SGP95w;2017-05-30-09-01-25;10;2;1,09821562768;False;left;1,7;-0,15;-1;neither;0,379999876022
SGP95w;2017-05-30-09-01-25;10;3;1,00218069794;True;both;1,9;0,15;1;neither;0,383999824524
SGP95w;2017-05-30-09-01-25;10;4;1,14159051239;False;right;1,1;-0,15;-1;neither;0,728999853134
SGP95w;2017-05-30-09-01-25;10;5;0,839586559175;True;left;1,9;0,15;1;neither;0,428999900818
SGP95w;2017-05-30-09-01-25;10;6;0,887864560391;False;right;1,5;0,15;-1;neither;0,416000127792
SGP95w;2017-05-30-09-01-25;10;7;1,08241712896;True;left;1,5;-0,15;1;neither;0,432999849319
SGP95w;2017-05-30-09-01-25;10;8;0,933264374422;False;left;1,7;0,15;1;neither;0,414999961853
SGP95w;2017-05-30-09-01-25;10;9;0,88283269468;True;right;1,9;-0,15;1;neither;0,480999946594
SGP95w;2017-05-30-09-01-25;10;10;1,1809557188;False;left;1,1;-0,15;1;neither;0,47400021553
SGP95w;2017-05-30-09-01-25;10;11;1,03051588294;True;both;1,3;-0,15;1;neither;0,388999938965
SGP95w;2017-05-30-09-01-25;10;12;0,965727025499;False;right;1,5;0,0;1;neither;0,402000188828
SGP95w;2017-05-30-09-01-25;10;13;1,12760891894;True;right;1,1;0,0;1;neither;0,559000015259
SGP95w;2017-05-30-09-01-25;10;14;0,904172579191;False;left;1,9;0,0;1;both;0,871000051498
SGP95w;2017-05-30-09-01-25;10;15;1,0574417702;True;left;1,5;0,15;1;neither;0,365999937057
SGP95w;2017-05-30-09-01-25;10;16;0,834634165444;False;both;1,3;0,0;1;both;0,416000127792
SGP95w;2017-05-30-09-01-25;10;17;0,876261796522;True;neither;1,9;-0,15;1;neither;0,565999984741
SGP95w;2017-05-30-09-01-25;10;18;1,02894564974;False;right;1,5;-0,15;1;neither;1,56599998474
SGP95w;2017-05-30-09-01-25;10;19;0,852978451803;True;left;1,9;0,15;-1;both;0,455000162125
SGP95w;2017-05-30-09-01-25;10;20;1,16638396526;False;left;1,5;-0,15;-1;both;2,59000015259
SGP95w;2017-05-30-09-01-25;10;21;1,1730740153;True;left;1,3;0,0;1;neither;0,457999944687
SGP95w;2017-05-30-09-01-25;10;22;0,971731756476;False;neither;1,7;-0,15;1;neither;0,507000207901
SGP95w;2017-05-30-09-01-25;10;23;1,05540186319;True;neither;1,3;0,15;1;neither;0,571999788284
SGP95w;2017-05-30-09-01-25;10;24;1,10510632316;False;right;1,1;-0,15;-1;neither;0,460999965668
SGP95w;2017-05-30-09-01-25;10;25;0,910196255459;True;neither;1,1;0,0;1;neither;0,414999961853
SGP95w;2017-05-30-09-01-25;10;26;0,817551201144;False;neither;1,7;0,15;1;neither;0,407999992371
SGP95w;2017-05-30-09-01-25;10;27;0,836093127519;True;left;1,7;0,0;1;neither;0,540999889374
SGP95w;2017-05-30-09-01-25;10;28;0,96689184025;False;left;1,5;0,0;1;neither;1,99199986458
SGP95w;2017-05-30-09-01-25;10;29;1,03058547045;True;right;1,1;0,15;-1;neither;0,514000177383
SGP95w;2017-05-30-09-01-25;10;30;1,09331335219;False;left;1,5;0,15;1;both;0,398000001907
SGP95w;2017-05-30-09-01-25;10;31;1,18442473073;True;left;1,9;-0,15;-1;neither;0,412999868393
SGP95w;2017-05-30-09-01-25;10;32;1,0557842391;False;neither;1,1;-0,15;-1;neither;0,499000072479
SGP95w;2017-05-30-09-01-25;10;33;0,84150854292;True;right;1,9;0,0;1;neither;0,462999820709
SGP95w;2017-05-30-09-01-25;10;34;0,840875665388;False;left;1,3;0,0;-1;both;0,428999900818
SGP95w;2017-05-30-09-01-25;10;35;0,832813583418;True;right;1,1;0,15;-1;neither;0,389000177383
SGP95w;2017-05-30-09-01-25;10;36;0,99796464823;False;right;1,7;0,0;-1;both;0,414000034332
SGP95w;2017-05-30-09-01-25;10;37;0,837185225508;True;right;1,7;-0,15;-1;neither;0,884999990463
SGP95w;2017-05-30-09-01-25;10;38;1,1488444819;False;right;1,9;0,15;-1;both;0,508000135422
SGP95w;2017-05-30-09-01-25;10;39;0,847203390411;True;both;1,1;0,0;1;both;0,444999933243
SGP95w;2017-05-30-09-01-25;10;40;0,942846033879;False;neither;1,3;-0,15;1;neither;0,848000049591
SGP95w;2017-05-30-09-01-25;10;41;1,14800657709;True;right;1,9;0,15;-1;neither;0,40499997139
SGP95w;2017-05-30-09-01-25;10;42;1,17037035386;False;left;1,3;0,15;-1;left;0,373000144958
SGP95w;2017-05-30-09-01-25;10;43;1,15723821126;True;both;1,5;-0,15;-1;both;0,376999855042
SGP95w;2017-05-30-09-01-25;10;44;1,05455206988;False;both;1,1;0,15;1;both;0,543999910355
SGP95w;2017-05-30-09-01-25;10;45;1,17403153113;True;neither;1,5;-0,15;1;neither;0,391000032425
