Observer;SessionID;Block;Trial;OnsetDelay;Yellow;Switch;SwitchTime;Gap;Direction;Response;RT
SJW88m;2017-05-30-10-51-29;1;1;1,15347654816;True;right;1,5;0,15;1;left;2,9880001545
SJW88m;2017-05-30-10-51-29;1;2;0,822884923471;False;left;1,3;0,15;1;left;1,46700000763
SJW88m;2017-05-30-10-51-29;1;3;0,848080929628;True;right;1,9;0,0;1;right;1,22399997711
SJW88m;2017-05-30-10-51-29;1;4;0,981688914565;False;left;1,9;-0,15;1;left;1,54600000381
SJW88m;2017-05-30-10-51-29;1;5;1,10074812652;True;left;1,7;0,0;-1;left;0,556999921799
SJW88m;2017-05-30-10-51-29;1;6;1,01788133879;False;both;1,7;-0,15;1;both;1,13199996948
SJW88m;2017-05-30-10-51-29;1;7;1,08073840769;True;neither;1,9;0,0;1;neither;1,03199982643
SJW88m;2017-05-30-10-51-29;1;8;1,1014392002;False;neither;1,5;0,0;-1;neither;0,97200012207
SJW88m;2017-05-30-10-51-29;1;9;0,978769051483;True;left;1,5;0,15;1;left;0,446000099182
SJW88m;2017-05-30-10-51-29;1;10;1,11208301944;False;left;1,1;0,15;1;left;0,746999979019
SJW88m;2017-05-30-10-51-29;1;11;0,929728237818;True;left;1,1;-0,15;-1;left;1,10800004005
SJW88m;2017-05-30-10-51-29;1;12;0,946400680611;False;right;1,7;-0,15;1;right;0,401000022888
SJW88m;2017-05-30-10-51-29;1;13;1,10983852826;True;both;1,1;-0,15;1;right;1,76300001144
SJW88m;2017-05-30-10-51-29;1;14;0,863795397417;False;right;1,9;0,15;-1;right;0,411999940872
SJW88m;2017-05-30-10-51-29;1;15;1,19583414816;True;both;1,7;0,15;-1;left;1,64399981499
SJW88m;2017-05-30-10-51-29;1;16;0,98531468887;False;left;1,9;0,15;-1;neither;0,947000026703
SJW88m;2017-05-30-10-51-29;1;17;0,854198154801;True;left;1,9;-0,15;-1;right;2,5529999733
SJW88m;2017-05-30-10-51-29;1;18;1,13431597877;False;neither;1,7;0,15;1;neither;1,06999993324
SJW88m;2017-05-30-10-51-29;1;19;0,829313859175;True;right;1,7;0,15;1;right;0,491000175476
SJW88m;2017-05-30-10-51-29;1;20;0,931600864453;False;both;1,3;0,0;-1;right;4,4889998436
SJW88m;2017-05-30-10-51-29;1;21;0,993985427242;True;both;1,7;0,0;-1;left;0,635999917984
SJW88m;2017-05-30-10-51-29;1;22;1,1379437548;False;left;1,9;0,0;1;left;0,430999994278
SJW88m;2017-05-30-10-51-29;1;23;0,990717763738;True;right;1,9;-0,15;1;right;0,44000005722
SJW88m;2017-05-30-10-51-29;1;24;0,804891773573;False;right;1,3;-0,15;-1;neither;2,03600001335
SJW88m;2017-05-30-10-51-29;1;25;1,1115597143;True;left;1,7;0,15;-1;left;2,63900017738
SJW88m;2017-05-30-10-51-29;1;26;0,967493427129;False;neither;1,3;0,0;-1;neither;0,865000009537
SJW88m;2017-05-30-10-51-29;1;27;1,01058960978;True;neither;1,3;-0,15;-1;neither;0,583999872208
SJW88m;2017-05-30-10-51-29;1;28;0,871500370502;False;left;1,5;-0,15;1;neither;0,480999946594
SJW88m;2017-05-30-10-51-29;1;29;0,869561171874;True;left;1,1;-0,15;-1;neither;0,426000118256
SJW88m;2017-05-30-10-51-29;1;30;1,14982134672;False;neither;1,1;0,15;1;neither;0,906000137329
SJW88m;2017-05-30-10-51-29;1;31;0,90792131094;True;both;1,5;0,15;-1;neither;0,793999910355
SJW88m;2017-05-30-10-51-29;1;32;0,803902958897;False;right;1,3;0,0;-1;right;0,46799993515
SJW88m;2017-05-30-10-51-29;1;33;1,11107669445;True;right;1,7;0,0;1;neither;0,87700009346
SJW88m;2017-05-30-10-51-29;1;34;0,987957287215;False;left;1,7;0,15;-1;left;0,6859998703
SJW88m;2017-05-30-10-51-29;1;35;0,808822254914;True;right;1,7;0,15;-1;right;0,693000078201
SJW88m;2017-05-30-10-51-29;1;36;1,03185938875;False;both;1,1;0,15;1;neither;0,743000030518
SJW88m;2017-05-30-10-51-29;1;37;0,806524257853;True;left;1,3;-0,15;-1;neither;0,904000043869
SJW88m;2017-05-30-10-51-29;1;38;1,14927485684;False;neither;1,5;-0,15;-1;neither;0,604999780655
SJW88m;2017-05-30-10-51-29;1;39;1,08959415572;True;right;1,5;0,0;-1;both;1,88000011444
SJW88m;2017-05-30-10-51-29;1;40;1,18927419757;False;neither;1,1;-0,15;1;neither;1,06300020218
SJW88m;2017-05-30-10-51-29;1;41;0,830101966126;True;both;1,1;0,0;-1;neither;0,575999975204
SJW88m;2017-05-30-10-51-29;1;42;0,982759276435;False;left;1,5;0,0;1;neither;0,805000066757
SJW88m;2017-05-30-10-51-29;1;43;0,883535522596;True;both;1,3;-0,15;-1;both;0,585999965668
SJW88m;2017-05-30-10-51-29;1;44;1,00312733165;False;left;1,9;0,15;1;left;0,40700006485
SJW88m;2017-05-30-10-51-29;1;45;1,01959336331;True;right;1,7;-0,15;-1;right;1,06200003624
SJW88m;2017-05-30-10-51-29;2;1;1,02649531283;False;right;1,5;0,15;1;left;0,707000017166
SJW88m;2017-05-30-10-51-29;2;2;0,996725841119;True;left;1,3;0,15;1;neither;0,463999986649
SJW88m;2017-05-30-10-51-29;2;3;0,850962663527;False;right;1,9;0,0;-1;neither;0,414000034332
SJW88m;2017-05-30-10-51-29;2;4;0,959643162961;True;left;1,9;-0,15;1;left;0,986000061035
SJW88m;2017-05-30-10-51-29;2;5;1,1423865108;False;left;1,7;0,0;-1;neither;0,536999940872
SJW88m;2017-05-30-10-51-29;2;6;0,945664322053;True;both;1,7;-0,15;1;neither;0,709000110626
SJW88m;2017-05-30-10-51-29;2;7;1,14340490905;False;neither;1,9;0,0;1;neither;0,466000080109
SJW88m;2017-05-30-10-51-29;2;8;0,962466545288;True;neither;1,5;0,0;1;neither;0,43700003624
SJW88m;2017-05-30-10-51-29;2;9;0,89826889336;False;left;1,5;0,15;-1;neither;0,586999893188
SJW88m;2017-05-30-10-51-29;2;10;0,875130348814;True;left;1,1;0,15;1;neither;0,499000072479
SJW88m;2017-05-30-10-51-29;2;11;1,09782593452;False;left;1,1;-0,15;-1;neither;0,478999853134
SJW88m;2017-05-30-10-51-29;2;12;1,08873225861;True;right;1,7;-0,15;-1;right;0,740000009537
SJW88m;2017-05-30-10-51-29;2;13;1,06469059048;False;both;1,1;-0,15;1;neither;0,612999916077
SJW88m;2017-05-30-10-51-29;2;14;0,837359084983;True;right;1,9;0,15;-1;neither;0,618999958038
SJW88m;2017-05-30-10-51-29;2;15;1,08941305582;False;both;1,7;0,15;-1;right;0,580000162125
SJW88m;2017-05-30-10-51-29;2;16;1,15215017022;True;left;1,9;0,15;-1;neither;0,664999961853
SJW88m;2017-05-30-10-51-29;2;17;0,961830564561;False;left;1,9;-0,15;-1;left;0,483000040054
SJW88m;2017-05-30-10-51-29;2;18;0,830530025516;True;neither;1,7;0,15;1;neither;0,511999845505
SJW88m;2017-05-30-10-51-29;2;19;1,18473194281;False;right;1,7;0,15;-1;right;0,444000005722
SJW88m;2017-05-30-10-51-29;2;20;1,04236294212;True;both;1,3;0,0;-1;left;0,806999921799
SJW88m;2017-05-30-10-51-29;2;21;0,898589794414;False;both;1,7;0,0;-1;right;0,443000078201
SJW88m;2017-05-30-10-51-29;2;22;0,88411976108;True;left;1,9;0,0;1;neither;1,27200007439
SJW88m;2017-05-30-10-51-29;2;23;0,859550629643;False;right;1,9;-0,15;1;neither;0,87299990654
SJW88m;2017-05-30-10-51-29;2;24;0,935966336599;True;right;1,3;-0,15;-1;neither;0,427999973297
SJW88m;2017-05-30-10-51-29;2;25;1,16192313413;False;left;1,7;0,15;1;left;0,517000198364
SJW88m;2017-05-30-10-51-29;2;26;1,07362101004;True;neither;1,3;0,0;-1;neither;0,415000200272
SJW88m;2017-05-30-10-51-29;2;27;0,824006759014;False;neither;1,3;-0,15;1;neither;0,398000001907
SJW88m;2017-05-30-10-51-29;2;28;0,913692323106;True;left;1,5;-0,15;-1;neither;2,32999992371
SJW88m;2017-05-30-10-51-29;2;29;0,920770425456;False;left;1,1;-0,15;-1;neither;0,398999929428
SJW88m;2017-05-30-10-51-29;2;30;0,875986637826;True;neither;1,1;0,15;1;neither;0,43799996376
SJW88m;2017-05-30-10-51-29;2;31;0,976904125173;False;both;1,5;0,15;1;neither;0,954999923706
SJW88m;2017-05-30-10-51-29;2;32;1,18804011011;True;right;1,3;0,0;1;right;0,388999938965
SJW88m;2017-05-30-10-51-29;2;33;1,09756320235;False;right;1,7;0,0;-1;right;1,26799988747
SJW88m;2017-05-30-10-51-29;2;34;1,08752382468;True;left;1,7;0,15;1;left;1,09600019455
SJW88m;2017-05-30-10-51-29;2;35;1,17274826112;False;right;1,7;0,15;1;neither;0,399999856949
SJW88m;2017-05-30-10-51-29;2;36;0,954188312061;True;both;1,1;0,15;1;neither;0,447000026703
SJW88m;2017-05-30-10-51-29;2;37;0,989823781493;False;left;1,3;-0,15;1;neither;0,490000009537
SJW88m;2017-05-30-10-51-29;2;38;1,06362602084;True;neither;1,5;-0,15;1;neither;0,517000198364
SJW88m;2017-05-30-10-51-29;2;39;1,01399651048;False;right;1,5;0,0;1;neither;0,401999950409
SJW88m;2017-05-30-10-51-29;2;40;1,13589386461;True;neither;1,1;-0,15;1;neither;0,46599984169
SJW88m;2017-05-30-10-51-29;2;41;0,856736015547;False;both;1,1;0,0;1;neither;0,461999893188
SJW88m;2017-05-30-10-51-29;2;42;0,851621574279;True;left;1,5;0,0;-1;left;0,679000139236
SJW88m;2017-05-30-10-51-29;2;43;1,11971316805;False;both;1,3;-0,15;-1;neither;0,738000154495
SJW88m;2017-05-30-10-51-29;2;44;0,853354126222;True;left;1,9;0,15;1;right;1,21600008011
SJW88m;2017-05-30-10-51-29;2;45;1,09980072984;False;right;1,7;-0,15;1;neither;0,480000019073
SJW88m;2017-05-30-10-51-29;3;1;1,12544269854;True;left;1,7;0,15;-1;neither;0,523999929428
SJW88m;2017-05-30-10-51-29;3;2;0,911880834822;False;neither;1,9;0,15;-1;neither;0,71799993515
SJW88m;2017-05-30-10-51-29;3;3;1,09293297718;True;left;1,1;-0,15;-1;neither;0,453000068665
SJW88m;2017-05-30-10-51-29;3;4;1,09987499799;False;left;1,1;0,15;-1;neither;0,451999902725
SJW88m;2017-05-30-10-51-29;3;5;1,06849496496;True;both;1,3;0,15;1;neither;0,417000055313
SJW88m;2017-05-30-10-51-29;3;6;1,17069879852;False;right;1,9;0,0;1;both;3,34900021553
SJW88m;2017-05-30-10-51-29;3;7;0,893296004402;True;left;1,9;0,15;-1;neither;2,20899987221
SJW88m;2017-05-30-10-51-29;3;8;0,856015787601;False;right;1,3;0,15;-1;neither;0,578000068665
SJW88m;2017-05-30-10-51-29;3;9;0,85109404066;True;left;1,3;-0,15;-1;neither;0,684000015259
SJW88m;2017-05-30-10-51-29;3;10;1,04135814834;False;left;1,9;-0,15;-1;left;0,388999938965
SJW88m;2017-05-30-10-51-29;3;11;1,0074214165;True;right;1,1;0,15;-1;neither;0,448999881744
SJW88m;2017-05-30-10-51-29;3;12;0,905503276885;False;right;1,1;0,15;-1;right;3,0569999218
SJW88m;2017-05-30-10-51-29;3;13;0,971420992574;True;left;1,1;0,15;1;left;0,43499994278
SJW88m;2017-05-30-10-51-29;3;14;1,08895285763;False;both;1,1;0,15;1;neither;2,58400011063
SJW88m;2017-05-30-10-51-29;3;15;0,906392122779;True;right;1,9;-0,15;-1;right;0,443000078201
SJW88m;2017-05-30-10-51-29;3;16;0,898985767775;False;right;1,7;-0,15;-1;neither;0,900000095367
SJW88m;2017-05-30-10-51-29;3;17;1,0236293882;True;left;1,7;-0,15;-1;left;0,391000032425
SJW88m;2017-05-30-10-51-29;3;18;1,09318759401;False;left;1,9;0,15;-1;left;0,421000003815
SJW88m;2017-05-30-10-51-29;3;19;0,833085868891;True;left;1,7;0,0;-1;neither;0,436999797821
SJW88m;2017-05-30-10-51-29;3;20;0,852540161562;False;neither;1,3;0,15;-1;neither;0,420000076294
SJW88m;2017-05-30-10-51-29;3;21;1,04162111673;True;neither;1,1;-0,15;-1;neither;0,49799990654
SJW88m;2017-05-30-10-51-29;3;22;1,01079707708;False;right;1,9;0,15;1;neither;0,388999938965
SJW88m;2017-05-30-10-51-29;3;23;0,915929234246;True;neither;1,1;0,15;-1;neither;0,950000047684
SJW88m;2017-05-30-10-51-29;3;24;0,808063680649;False;right;1,1;-0,15;1;right;0,4359998703
SJW88m;2017-05-30-10-51-29;3;25;0,803728715441;True;left;1,5;0,0;-1;neither;0,330000162125
SJW88m;2017-05-30-10-51-29;3;26;0,811003675031;False;both;1,3;-0,15;-1;neither;0,342000007629
SJW88m;2017-05-30-10-51-29;3;27;1,14438287194;True;right;1,9;-0,15;-1;neither;0,436000108719
SJW88m;2017-05-30-10-51-29;3;28;1,17551004877;False;both;1,5;0,0;1;neither;0,378000020981
SJW88m;2017-05-30-10-51-29;3;29;0,957975515889;True;right;1,3;-0,15;-1;right;0,428999900818
SJW88m;2017-05-30-10-51-29;3;30;0,960223715943;False;left;1,9;-0,15;-1;neither;0,401000022888
SJW88m;2017-05-30-10-51-29;3;31;0,974300501497;True;both;1,1;0,0;1;both;0,838000059128
SJW88m;2017-05-30-10-51-29;3;32;0,86858807967;False;neither;1,7;0,15;-1;neither;0,786999940872
SJW88m;2017-05-30-10-51-29;3;33;1,15202926337;True;left;1,3;0,15;-1;neither;0,421999931335
SJW88m;2017-05-30-10-51-29;3;34;1,16902533501;False;right;1,3;0,0;1;neither;0,549999952316
SJW88m;2017-05-30-10-51-29;3;35;0,940332077047;True;neither;1,5;0,15;1;neither;0,473000049591
SJW88m;2017-05-30-10-51-29;3;36;0,832068080129;False;left;1,1;0,0;1;neither;0,401000022888
SJW88m;2017-05-30-10-51-29;3;37;1,04571354073;True;left;1,5;0,0;-1;neither;0,483000040054
SJW88m;2017-05-30-10-51-29;3;38;0,941424635086;False;neither;1,5;0,0;-1;neither;0,802999973297
SJW88m;2017-05-30-10-51-29;3;39;0,952885545619;True;left;1,5;-0,15;1;neither;0,52799987793
SJW88m;2017-05-30-10-51-29;3;40;1,07879840868;False;both;1,7;0,0;1;right;0,365000009537
SJW88m;2017-05-30-10-51-29;3;41;0,889969459171;True;left;1,3;0,0;1;left;0,427999973297
SJW88m;2017-05-30-10-51-29;3;42;0,840157037405;False;neither;1,7;-0,15;-1;neither;0,388999938965
SJW88m;2017-05-30-10-51-29;3;43;1,01915922693;True;neither;1,1;0,0;1;neither;0,398999929428
SJW88m;2017-05-30-10-51-29;3;44;0,982466881969;False;right;1,3;0,15;1;both;0,637000083923
SJW88m;2017-05-30-10-51-29;3;45;1,11976303692;True;left;1,3;0,0;1;left;0,397000074387
SJW88m;2017-05-30-10-51-29;4;1;0,902431751112;False;left;1,7;0,15;-1;neither;0,370000123978
SJW88m;2017-05-30-10-51-29;4;2;0,808019427684;True;neither;1,9;0,15;1;neither;0,361999988556
SJW88m;2017-05-30-10-51-29;4;3;0,831581584196;False;left;1,1;-0,15;-1;neither;0,362999916077
SJW88m;2017-05-30-10-51-29;4;4;1,12100002387;True;left;1,1;0,15;-1;neither;0,631999969482
SJW88m;2017-05-30-10-51-29;4;5;0,901624707368;False;both;1,3;0,15;1;both;0,445999860764
SJW88m;2017-05-30-10-51-29;4;6;0,96255507489;True;right;1,9;0,0;-1;neither;1,15900015831
SJW88m;2017-05-30-10-51-29;4;7;0,970372167135;False;left;1,9;0,15;1;neither;0,484999895096
SJW88m;2017-05-30-10-51-29;4;8;1,12091401948;True;right;1,3;0,15;-1;neither;0,503000020981
SJW88m;2017-05-30-10-51-29;4;9;1,18060468757;False;left;1,3;-0,15;-1;neither;0,444000005722
SJW88m;2017-05-30-10-51-29;4;10;1,18876521435;True;left;1,9;-0,15;1;neither;0,398000001907
SJW88m;2017-05-30-10-51-29;4;11;1,11884602227;False;right;1,1;0,15;1;neither;0,447000026703
SJW88m;2017-05-30-10-51-29;4;12;0,81771368952;True;right;1,1;0,15;-1;right;0,431999921799
SJW88m;2017-05-30-10-51-29;4;13;1,17943025109;False;left;1,1;0,15;-1;neither;0,699000120163
SJW88m;2017-05-30-10-51-29;4;14;0,892544033112;True;both;1,1;0,15;-1;neither;0,513999938965
SJW88m;2017-05-30-10-51-29;4;15;1,19132313077;False;right;1,9;-0,15;1;neither;0,428000211716
SJW88m;2017-05-30-10-51-29;4;16;1,02729814872;True;right;1,7;-0,15;1;neither;0,885999917984
SJW88m;2017-05-30-10-51-29;4;17;0,818621287378;False;left;1,7;-0,15;1;neither;0,407999992371
SJW88m;2017-05-30-10-51-29;4;18;0,855193292789;True;left;1,9;0,15;1;neither;0,521000146866
SJW88m;2017-05-30-10-51-29;4;19;0,911318369856;False;left;1,7;0,0;-1;neither;0,458999872208
SJW88m;2017-05-30-10-51-29;4;20;1,19404900716;True;neither;1,3;0,15;1;neither;0,582000017166
SJW88m;2017-05-30-10-51-29;4;21;1,03883545961;False;neither;1,1;-0,15;-1;neither;0,378999948502
SJW88m;2017-05-30-10-51-29;4;22;1,00822294411;True;right;1,9;0,15;1;neither;0,433000087738
SJW88m;2017-05-30-10-51-29;4;23;0,905617631993;False;neither;1,1;0,15;1;neither;0,418999910355
SJW88m;2017-05-30-10-51-29;4;24;0,911911682231;True;right;1,1;-0,15;-1;neither;0,491000175476
SJW88m;2017-05-30-10-51-29;4;25;1,02719261849;False;left;1,5;0,0;1;neither;0,470999956131
SJW88m;2017-05-30-10-51-29;4;26;0,86651653485;True;both;1,3;-0,15;-1;both;0,473999977112
SJW88m;2017-05-30-10-51-29;4;27;1,06891129501;False;right;1,9;-0,15;1;neither;0,407999992371
SJW88m;2017-05-30-10-51-29;4;28;1,08828427853;True;both;1,5;0,0;-1;both;0,473999977112
SJW88m;2017-05-30-10-51-29;4;29;1,1624388187;False;right;1,3;-0,15;1;neither;0,389999866486
SJW88m;2017-05-30-10-51-29;4;30;1,10391325056;True;left;1,9;-0,15;-1;neither;0,449000120163
SJW88m;2017-05-30-10-51-29;4;31;0,92502726635;False;both;1,1;0,0;-1;both;0,503999948502
SJW88m;2017-05-30-10-51-29;4;32;1,0751161148;True;neither;1,7;0,15;1;neither;0,389999866486
SJW88m;2017-05-30-10-51-29;4;33;1,10685879334;False;left;1,3;0,15;-1;neither;0,478999853134
SJW88m;2017-05-30-10-51-29;4;34;0,800646184417;True;right;1,3;0,0;-1;neither;0,444000005722
SJW88m;2017-05-30-10-51-29;4;35;1,08230552454;False;neither;1,5;0,15;1;neither;0,476999998093
SJW88m;2017-05-30-10-51-29;4;36;1,14346109078;True;left;1,1;0,0;1;neither;0,43799996376
SJW88m;2017-05-30-10-51-29;4;37;1,03486593107;False;left;1,5;0,0;-1;neither;0,451999902725
SJW88m;2017-05-30-10-51-29;4;38;0,875945803681;True;neither;1,5;0,0;-1;neither;0,454999923706
SJW88m;2017-05-30-10-51-29;4;39;0,80211011801;False;left;1,5;-0,15;1;neither;0,371999979019
SJW88m;2017-05-30-10-51-29;4;40;0,91185057969;True;both;1,7;0,0;1;both;0,469000101089
SJW88m;2017-05-30-10-51-29;4;41;0,968751404471;False;left;1,3;0,0;-1;neither;0,422999858856
SJW88m;2017-05-30-10-51-29;4;42;1,14984318633;True;neither;1,7;-0,15;-1;neither;0,43799996376
SJW88m;2017-05-30-10-51-29;4;43;1,09756722433;False;neither;1,1;0,0;-1;neither;0,46599984169
SJW88m;2017-05-30-10-51-29;4;44;1,08626187654;True;right;1,3;0,15;1;right;0,384999990463
SJW88m;2017-05-30-10-51-29;4;45;0,969955607079;False;left;1,3;0,0;-1;neither;1,64199995995
SJW88m;2017-05-30-10-51-29;5;1;0,870386566905;True;both;1,7;0,0;-1;both;0,337999820709
SJW88m;2017-05-30-10-51-29;5;2;0,989723369888;False;left;1,3;-0,15;1;neither;0,355999946594
SJW88m;2017-05-30-10-51-29;5;3;1,06411687892;True;both;1,1;-0,15;-1;both;0,382999897003
SJW88m;2017-05-30-10-51-29;5;4;0,977346667609;False;neither;1,5;0,0;-1;neither;0,388000011444
SJW88m;2017-05-30-10-51-29;5;5;1,07253534443;True;neither;1,3;0,0;-1;neither;0,43799996376
SJW88m;2017-05-30-10-51-29;5;6;1,17608064181;False;neither;1,5;-0,15;1;neither;0,462000131607
SJW88m;2017-05-30-10-51-29;5;7;1,15131562822;True;neither;1,1;0,0;1;neither;0,47100019455
SJW88m;2017-05-30-10-51-29;5;8;0,933492603014;False;right;1,7;-0,15;1;neither;0,377999782562
SJW88m;2017-05-30-10-51-29;5;9;0,9786480781;True;right;1,1;0,0;1;right;0,359999895096
SJW88m;2017-05-30-10-51-29;5;10;1,08626923841;False;right;1,7;0,15;-1;right;0,391999959946
SJW88m;2017-05-30-10-51-29;5;11;1,18169228215;True;both;1,7;0,15;1;both;0,358999967575
SJW88m;2017-05-30-10-51-29;5;12;0,997686026989;False;right;1,5;-0,15;1;neither;0,367999792099
SJW88m;2017-05-30-10-51-29;5;13;1,06023369024;True;left;1,7;0,0;1;neither;0,412999868393
SJW88m;2017-05-30-10-51-29;5;14;1,05673067338;False;neither;1,9;0,0;1;neither;0,403000116348
SJW88m;2017-05-30-10-51-29;5;15;0,971159746263;True;right;1,7;0,15;-1;right;0,463999986649
SJW88m;2017-05-30-10-51-29;5;16;1,18233366295;False;right;1,3;-0,15;1;neither;0,432999849319
SJW88m;2017-05-30-10-51-29;5;17;1,10007974002;True;left;1,7;0,0;-1;neither;0,444000005722
SJW88m;2017-05-30-10-51-29;5;18;1,07513562506;False;both;1,9;-0,15;1;neither;0,337999820709
SJW88m;2017-05-30-10-51-29;5;19;1,00963480271;True;left;1,9;0,0;1;neither;0,43700003624
SJW88m;2017-05-30-10-51-29;5;20;1,0696378872;False;left;1,1;0,15;-1;neither;0,445999860764
SJW88m;2017-05-30-10-51-29;5;21;1,03390082638;True;right;1,1;0,15;1;right;0,412000179291
SJW88m;2017-05-30-10-51-29;5;22;1,08501611709;False;both;1,1;0,15;1;left;0,716000080109
SJW88m;2017-05-30-10-51-29;5;23;0,935739482678;True;left;1,9;-0,15;1;both;0,417999982834
SJW88m;2017-05-30-10-51-29;5;24;0,843228499017;False;left;1,7;0,15;1;left;0,440999984741
SJW88m;2017-05-30-10-51-29;5;25;0,875940901275;True;both;1,7;-0,15;1;both;0,381000041962
SJW88m;2017-05-30-10-51-29;5;26;0,929720619855;False;neither;1,1;0,15;1;neither;0,469999790192
SJW88m;2017-05-30-10-51-29;5;27;1,03814687972;True;both;1,5;-0,15;1;both;0,378999948502
SJW88m;2017-05-30-10-51-29;5;28;0,88446836498;False;neither;1,5;0,15;1;neither;0,423000097275
SJW88m;2017-05-30-10-51-29;5;29;1,09009492695;True;left;1,1;0,0;-1;neither;0,371000051498
SJW88m;2017-05-30-10-51-29;5;30;0,896789531203;False;right;1,3;0,0;-1;neither;0,409999847412
SJW88m;2017-05-30-10-51-29;5;31;0,963642425355;True;right;1,1;-0,15;1;neither;0,594000101089
SJW88m;2017-05-30-10-51-29;5;32;1,18603086152;False;both;1,3;0,0;-1;neither;0,503999948502
SJW88m;2017-05-30-10-51-29;5;33;1,10986181901;True;right;1,9;-0,15;-1;neither;0,448000192642
SJW88m;2017-05-30-10-51-29;5;34;1,10741118556;False;both;1,5;0,15;1;neither;0,447000026703
SJW88m;2017-05-30-10-51-29;5;35;1,0616382976;True;left;1,5;0,0;-1;neither;0,544000148773
SJW88m;2017-05-30-10-51-29;5;36;1,10874698252;False;right;1,3;-0,15;1;neither;0,433000087738
SJW88m;2017-05-30-10-51-29;5;37;0,812888730581;True;neither;1,3;-0,15;-1;neither;1,93099999428
SJW88m;2017-05-30-10-51-29;5;38;1,17861822819;False;left;1,5;-0,15;-1;neither;0,546000003815
SJW88m;2017-05-30-10-51-29;5;39;0,874931243656;True;right;1,1;0,0;-1;neither;0,410000085831
SJW88m;2017-05-30-10-51-29;5;40;1,13341859741;False;right;1,7;0,0;-1;neither;0,378000020981
SJW88m;2017-05-30-10-51-29;5;41;0,972297170229;True;both;1,3;-0,15;-1;both;0,411000013351
SJW88m;2017-05-30-10-51-29;5;42;1,10705242619;False;left;1,3;-0,15;1;both;0,407999992371
SJW88m;2017-05-30-10-51-29;5;43;1,09986569089;True;left;1,3;0,0;1;left;2,52100014687
SJW88m;2017-05-30-10-51-29;5;44;1,13044938571;False;right;1,1;-0,15;-1;both;0,499000072479
SJW88m;2017-05-30-10-51-29;5;45;0,899828951188;True;right;1,7;0,0;1;right;0,375999927521
SJW88m;2017-05-30-10-51-29;6;1;0,833585860146;False;both;1,7;0,0;1;right;0,493000030518
SJW88m;2017-05-30-10-51-29;6;2;1,02519255954;True;left;1,3;-0,15;1;left;0,412999868393
SJW88m;2017-05-30-10-51-29;6;3;0,825763202254;False;both;1,1;-0,15;1;both;0,355000019073
SJW88m;2017-05-30-10-51-29;6;4;0,941048038594;True;neither;1,5;0,0;-1;neither;0,423000097275
SJW88m;2017-05-30-10-51-29;6;5;0,814910927624;False;neither;1,3;0,0;1;neither;0,43499994278
SJW88m;2017-05-30-10-51-29;6;6;0,831187312334;True;neither;1,5;-0,15;-1;neither;0,422999858856
SJW88m;2017-05-30-10-51-29;6;7;0,867574791329;False;neither;1,1;0,0;1;neither;0,509000062943
SJW88m;2017-05-30-10-51-29;6;8;0,835224830246;True;right;1,7;-0,15;1;neither;0,463999986649
SJW88m;2017-05-30-10-51-29;6;9;0,916104683974;False;right;1,1;0,0;-1;both;0,424000024796
SJW88m;2017-05-30-10-51-29;6;10;0,924026876849;True;right;1,7;0,15;-1;neither;1,31599998474
SJW88m;2017-05-30-10-51-29;6;11;0,970423465758;False;both;1,7;0,15;-1;neither;0,423000097275
SJW88m;2017-05-30-10-51-29;6;12;1,11980069866;True;right;1,5;-0,15;-1;neither;0,442999839783
SJW88m;2017-05-30-10-51-29;6;13;1,05234049278;False;left;1,7;0,0;-1;neither;0,492000102997
SJW88m;2017-05-30-10-51-29;6;14;1,1676768055;True;neither;1,9;0,0;-1;neither;0,609999895096
SJW88m;2017-05-30-10-51-29;6;15;1,03727775166;False;right;1,7;0,15;1;neither;0,491999864578
SJW88m;2017-05-30-10-51-29;6;16;0,803088002895;True;right;1,3;-0,15;-1;neither;0,517000198364
SJW88m;2017-05-30-10-51-29;6;17;1,11159552855;False;left;1,7;0,0;-1;neither;0,493999958038
SJW88m;2017-05-30-10-51-29;6;18;1,14061396448;True;both;1,9;-0,15;-1;both;0,357000112534
SJW88m;2017-05-30-10-51-29;6;19;0,893252296645;False;left;1,9;0,0;-1;neither;0,391000032425
SJW88m;2017-05-30-10-51-29;6;20;0,972309729321;True;left;1,1;0,15;1;neither;0,430000066757
SJW88m;2017-05-30-10-51-29;6;21;0,846366786805;False;right;1,1;0,15;1;left;0,908999919891
SJW88m;2017-05-30-10-51-29;6;22;0,865520206933;True;both;1,1;0,15;-1;both;0,414000034332
SJW88m;2017-05-30-10-51-29;6;23;0,84717638085;False;left;1,9;-0,15;1;neither;0,440999984741
SJW88m;2017-05-30-10-51-29;6;24;1,16385488623;True;left;1,7;0,15;1;left;0,394999980927
SJW88m;2017-05-30-10-51-29;6;25;1,04559201896;False;both;1,7;-0,15;1;neither;0,75400018692
SJW88m;2017-05-30-10-51-29;6;26;0,984311257327;True;neither;1,1;0,15;1;neither;0,489000082016
SJW88m;2017-05-30-10-51-29;6;27;0,833470043383;False;both;1,5;-0,15;-1;both;0,761000156403
SJW88m;2017-05-30-10-51-29;6;28;1,02109517322;True;neither;1,5;0,15;1;neither;0,445999860764
SJW88m;2017-05-30-10-51-29;6;29;0,899240017894;False;left;1,1;0,0;1;neither;0,375999927521
SJW88m;2017-05-30-10-51-29;6;30;1,15641315206;True;right;1,3;0,0;-1;right;0,458000183105
SJW88m;2017-05-30-10-51-29;6;31;1,19515470732;False;right;1,1;-0,15;-1;neither;0,538000106812
SJW88m;2017-05-30-10-51-29;6;32;0,91917048096;True;both;1,3;0,0;1;both;0,488999843597
SJW88m;2017-05-30-10-51-29;6;33;0,938115848358;False;right;1,9;-0,15;1;neither;0,506000041962
SJW88m;2017-05-30-10-51-29;6;34;1,16895047001;True;both;1,5;0,15;-1;neither;0,46799993515
SJW88m;2017-05-30-10-51-29;6;35;0,907539975955;False;left;1,5;0,0;1;neither;0,506000041962
SJW88m;2017-05-30-10-51-29;6;36;1,0434655648;True;right;1,3;-0,15;-1;right;0,522000074387
SJW88m;2017-05-30-10-51-29;6;37;1,08612445053;False;neither;1,3;-0,15;-1;neither;0,543999910355
SJW88m;2017-05-30-10-51-29;6;38;1,10685846452;True;left;1,5;-0,15;-1;neither;0,671000003815
SJW88m;2017-05-30-10-51-29;6;39;1,13092513448;False;right;1,1;0,0;-1;neither;0,453999996185
SJW88m;2017-05-30-10-51-29;6;40;0,880426928819;True;right;1,7;0,0;1;right;0,483999967575
SJW88m;2017-05-30-10-51-29;6;41;0,800259767174;False;both;1,3;-0,15;1;both;0,47000002861
SJW88m;2017-05-30-10-51-29;6;42;1,05012865401;True;left;1,3;-0,15;1;left;0,44000005722
SJW88m;2017-05-30-10-51-29;6;43;0,95535434576;False;left;1,3;0,0;1;neither;0,411000013351
SJW88m;2017-05-30-10-51-29;6;44;0,84638288111;True;right;1,1;-0,15;1;right;0,440999984741
SJW88m;2017-05-30-10-51-29;6;45;0,909598294629;False;right;1,7;0,0;-1;neither;0,387000083923
SJW88m;2017-05-30-10-51-29;7;1;0,884576084592;True;left;1,1;0,15;1;left;0,46799993515
SJW88m;2017-05-30-10-51-29;7;2;0,969885210985;False;both;1,9;0,0;-1;neither;0,421000003815
SJW88m;2017-05-30-10-51-29;7;3;1,19108400936;True;both;1,1;0,0;-1;right;0,71799993515
SJW88m;2017-05-30-10-51-29;7;4;1,14661121748;False;right;1,1;0,15;1;right;0,424999952316
SJW88m;2017-05-30-10-51-29;7;5;1,18613507791;True;neither;1,9;-0,15;-1;neither;0,421999931335
SJW88m;2017-05-30-10-51-29;7;6;0,974360131919;False;right;1,3;0,15;-1;neither;0,434000015259
SJW88m;2017-05-30-10-51-29;7;7;0,961831157332;True;left;1,9;-0,15;1;both;1,42500019073
SJW88m;2017-05-30-10-51-29;7;8;1,00253371041;False;neither;1,1;0,0;-1;neither;0,555000066757
SJW88m;2017-05-30-10-51-29;7;9;1,13920577284;True;right;1,9;-0,15;1;neither;0,419000148773
SJW88m;2017-05-30-10-51-29;7;10;0,930907457126;False;right;1,3;0,15;-1;neither;0,40700006485
SJW88m;2017-05-30-10-51-29;7;11;0,86060726979;True;right;1,9;0,15;-1;right;0,483999967575
SJW88m;2017-05-30-10-51-29;7;12;1,07396131201;False;right;1,5;-0,15;1;neither;0,52999997139
SJW88m;2017-05-30-10-51-29;7;13;0,998201267994;True;right;1,5;0,0;1;right;0,493999958038
SJW88m;2017-05-30-10-51-29;7;14;1,01348330257;False;neither;1,7;0,0;1;neither;0,493999958038
SJW88m;2017-05-30-10-51-29;7;15;0,819975740204;True;neither;1,3;0,0;-1;neither;0,483000040054
SJW88m;2017-05-30-10-51-29;7;16;1,10145492084;False;right;1,9;-0,15;-1;neither;0,466000080109
SJW88m;2017-05-30-10-51-29;7;17;1,09138832168;True;right;1,7;0,0;-1;neither;0,452000141144
SJW88m;2017-05-30-10-51-29;7;18;0,973375696654;False;left;1,5;-0,15;-1;neither;0,480000019073
SJW88m;2017-05-30-10-51-29;7;19;0,908095395232;True;right;1,5;0,0;1;right;0,432000160217
SJW88m;2017-05-30-10-51-29;7;20;1,13098459548;False;left;1,3;-0,15;1;neither;0,486000061035
SJW88m;2017-05-30-10-51-29;7;21;0,883597995244;True;right;1,9;0,0;-1;right;0,436000108719
SJW88m;2017-05-30-10-51-29;7;22;0,881213738032;False;both;1,3;0,15;1;right;0,391000032425
SJW88m;2017-05-30-10-51-29;7;23;1,03890909133;True;right;1,7;-0,15;1;neither;0,928999900818
SJW88m;2017-05-30-10-51-29;7;24;0,842923862046;False;neither;1,1;-0,15;-1;neither;0,832000017166
SJW88m;2017-05-30-10-51-29;7;25;0,994656578875;True;left;1,9;0,0;1;neither;0,375
SJW88m;2017-05-30-10-51-29;7;26;1,08764797752;False;left;1,9;0,15;1;neither;0,43499994278
SJW88m;2017-05-30-10-51-29;7;27;0,84572840982;True;left;1,1;-0,15;-1;neither;0,466000080109
SJW88m;2017-05-30-10-51-29;7;28;1,03882097717;False;neither;1,5;0,15;1;neither;0,475999832153
SJW88m;2017-05-30-10-51-29;7;29;1,05954634625;True;both;1,5;0,0;1;both;0,421000003815
SJW88m;2017-05-30-10-51-29;7;30;1,0388257383;False;left;1,7;-0,15;-1;neither;0,468000173569
SJW88m;2017-05-30-10-51-29;7;31;0,914192365922;True;neither;1,3;0,15;-1;neither;0,447000026703
SJW88m;2017-05-30-10-51-29;7;32;0,902793760967;False;left;1,9;0,15;1;both;3,80900001526
SJW88m;2017-05-30-10-51-29;7;33;0,958196079549;True;both;1,7;0,15;-1;both;0,427000045776
SJW88m;2017-05-30-10-51-29;7;34;1,1942944384;False;neither;1,5;-0,15;1;neither;0,457999944687
SJW88m;2017-05-30-10-51-29;7;35;0,953606587151;True;left;1,5;0,0;1;both;0,456000089645
SJW88m;2017-05-30-10-51-29;7;36;0,926410986842;False;both;1,3;0,0;-1;both;0,469000101089
SJW88m;2017-05-30-10-51-29;7;37;1,10134847892;True;left;1,7;0,15;-1;neither;0,418999910355
SJW88m;2017-05-30-10-51-29;7;38;1,0048176271;False;left;1,3;0,0;-1;neither;0,519000053406
SJW88m;2017-05-30-10-51-29;7;39;1,10886191402;True;right;1,7;0,0;1;both;1,81299996376
SJW88m;2017-05-30-10-51-29;7;40;1,15045897364;False;left;1,5;0,0;1;left;0,469000101089
SJW88m;2017-05-30-10-51-29;7;41;0,832756498431;True;neither;1,9;0,15;1;neither;0,914999961853
SJW88m;2017-05-30-10-51-29;7;42;0,908894779305;False;both;1,7;0,0;-1;right;0,355000019073
SJW88m;2017-05-30-10-51-29;7;43;0,964341221369;True;both;1,9;-0,15;-1;neither;0,426000118256
SJW88m;2017-05-30-10-51-29;7;44;1,18970717039;False;left;1,1;-0,15;1;neither;0,444999933243
SJW88m;2017-05-30-10-51-29;7;45;0,941611230009;True;right;1,3;0,0;1;right;0,401000022888
SJW88m;2017-05-30-10-51-29;8;1;0,834848351657;False;left;1,1;0,15;-1;both;0,629999876022
SJW88m;2017-05-30-10-51-29;8;2;1,03783001488;True;both;1,9;0,0;1;both;0,424999952316
SJW88m;2017-05-30-10-51-29;8;3;0,92730909929;False;both;1,1;0,0;1;both;0,385999917984
SJW88m;2017-05-30-10-51-29;8;4;0,930602547138;True;right;1,1;0,15;1;neither;0,343000173569
SJW88m;2017-05-30-10-51-29;8;5;0,802493429492;False;neither;1,9;-0,15;1;neither;0,43499994278
SJW88m;2017-05-30-10-51-29;8;6;1,13498161045;True;right;1,3;0,15;1;right;0,361999988556
SJW88m;2017-05-30-10-51-29;8;7;1,15241812551;False;left;1,9;-0,15;1;left;0,463000059128
SJW88m;2017-05-30-10-51-29;8;8;0,9294655115;True;neither;1,1;0,0;1;neither;0,450000047684
SJW88m;2017-05-30-10-51-29;8;9;0,930382915951;False;right;1,9;-0,15;1;neither;0,373000144958
SJW88m;2017-05-30-10-51-29;8;10;0,869663904249;True;right;1,3;0,15;1;right;0,399999856949
SJW88m;2017-05-30-10-51-29;8;11;1,02990348044;False;right;1,9;0,15;-1;right;0,365999937057
SJW88m;2017-05-30-10-51-29;8;12;0,911548151702;True;right;1,5;-0,15;-1;right;0,322000026703
SJW88m;2017-05-30-10-51-29;8;13;1,19683316402;False;right;1,5;0,0;1;right;0,358999967575
SJW88m;2017-05-30-10-51-29;8;14;0,883437869019;True;neither;1,7;0,0;1;neither;0,34299993515
SJW88m;2017-05-30-10-51-29;8;15;1,07522025276;False;neither;1,3;0,0;1;neither;0,420000076294
SJW88m;2017-05-30-10-51-29;8;16;0,907032326451;True;right;1,9;-0,15;-1;right;0,397000074387
SJW88m;2017-05-30-10-51-29;8;17;0,910496743824;False;right;1,7;0,0;1;both;0,703999996185
SJW88m;2017-05-30-10-51-29;8;18;1,18725670369;True;left;1,5;-0,15;1;neither;0,388000011444
SJW88m;2017-05-30-10-51-29;8;19;1,02958976641;False;right;1,5;0,0;1;both;0,657999992371
SJW88m;2017-05-30-10-51-29;8;20;0,800135351954;True;left;1,3;-0,15;1;left;0,884999990463
SJW88m;2017-05-30-10-51-29;8;21;0,917994655265;False;right;1,9;0,0;-1;right;0,651000022888
SJW88m;2017-05-30-10-51-29;8;22;0,828691310549;True;both;1,3;0,15;1;both;0,405999898911
SJW88m;2017-05-30-10-51-29;8;23;0,843517832911;False;right;1,7;-0,15;1;right;0,44000005722
SJW88m;2017-05-30-10-51-29;8;24;0,828658470568;True;neither;1,1;-0,15;1;neither;0,578999996185
SJW88m;2017-05-30-10-51-29;8;25;1,16640919526;False;left;1,9;0,0;1;neither;0,407999992371
SJW88m;2017-05-30-10-51-29;8;26;0,944837797956;True;left;1,9;0,15;-1;neither;0,361000061035
SJW88m;2017-05-30-10-51-29;8;27;0,966530706864;False;left;1,1;-0,15;-1;neither;0,416000127792
SJW88m;2017-05-30-10-51-29;8;28;1,15820917933;True;neither;1,5;0,15;1;neither;0,392000198364
SJW88m;2017-05-30-10-51-29;8;29;0,892770558388;False;both;1,5;0,0;1;both;0,486000061035
SJW88m;2017-05-30-10-51-29;8;30;0,927373167298;True;left;1,7;-0,15;1;left;0,417999982834
SJW88m;2017-05-30-10-51-29;8;31;1,12442742265;False;neither;1,3;0,15;-1;neither;0,380000114441
SJW88m;2017-05-30-10-51-29;8;32;0,971550636746;True;left;1,9;0,15;-1;left;0,367000102997
SJW88m;2017-05-30-10-51-29;8;33;1,11347753001;False;both;1,7;0,15;1;both;0,385999917984
SJW88m;2017-05-30-10-51-29;8;34;0,956031599464;True;neither;1,5;-0,15;-1;neither;0,358999967575
SJW88m;2017-05-30-10-51-29;8;35;0,84928169356;False;left;1,5;0,0;1;neither;0,433000087738
SJW88m;2017-05-30-10-51-29;8;36;1,07437258613;True;both;1,3;0,0;1;both;0,414000034332
SJW88m;2017-05-30-10-51-29;8;37;0,872237157239;False;left;1,7;0,15;1;left;0,655999898911
SJW88m;2017-05-30-10-51-29;8;38;0,888484509348;True;left;1,3;0,0;-1;left;0,397000074387
SJW88m;2017-05-30-10-51-29;8;39;0,965673038978;False;right;1,7;0,0;-1;both;0,348999977112
SJW88m;2017-05-30-10-51-29;8;40;0,810575601996;True;left;1,5;0,0;-1;left;0,385999917984
SJW88m;2017-05-30-10-51-29;8;41;0,832076442348;False;neither;1,9;0,15;-1;neither;0,365000009537
SJW88m;2017-05-30-10-51-29;8;42;0,99568668204;True;both;1,7;0,0;-1;both;0,427999973297
SJW88m;2017-05-30-10-51-29;8;43;0,924564596519;False;both;1,9;-0,15;1;both;0,373000144958
SJW88m;2017-05-30-10-51-29;8;44;0,920457742157;True;left;1,1;-0,15;-1;neither;0,384999990463
SJW88m;2017-05-30-10-51-29;8;45;1,15489062144;False;right;1,3;0,0;1;neither;0,488000154495
SJW88m;2017-05-30-10-51-29;9;1;1,19819235658;True;neither;1,3;0,0;-1;neither;0,487000226974
SJW88m;2017-05-30-10-51-29;9;2;1,11902079448;False;left;1,3;0,0;1;neither;0,421000003815
SJW88m;2017-05-30-10-51-29;9;3;1,04184778416;True;both;1,1;0,15;1;neither;0,407999992371
SJW88m;2017-05-30-10-51-29;9;4;0,992176740457;False;left;1,7;0,0;-1;neither;0,394000053406
SJW88m;2017-05-30-10-51-29;9;5;1,07565690254;True;right;1,9;0,0;1;right;1,73400020599
SJW88m;2017-05-30-10-51-29;9;6;1,08856337112;False;left;1,7;-0,15;1;neither;0,456000089645
SJW88m;2017-05-30-10-51-29;9;7;1,00227051889;True;left;1,3;0,15;1;neither;0,398999929428
SJW88m;2017-05-30-10-51-29;9;8;1,0107265038;False;both;1,3;-0,15;-1;neither;0,426000118256
SJW88m;2017-05-30-10-51-29;9;9;1,10263259493;True;right;1,7;0,15;-1;neither;0,458000183105
SJW88m;2017-05-30-10-51-29;9;10;1,02360123692;False;both;1,3;0,15;-1;neither;0,400000095367
SJW88m;2017-05-30-10-51-29;9;11;0,909282534144;True;left;1,7;-0,15;-1;neither;0,400000095367
SJW88m;2017-05-30-10-51-29;9;12;1,19472123804;False;right;1,3;-0,15;-1;neither;0,505000114441
SJW88m;2017-05-30-10-51-29;9;13;1,19785343788;True;neither;1,1;0,0;1;neither;0,417000055313
SJW88m;2017-05-30-10-51-29;9;14;1,17864924933;False;left;1,7;0,15;-1;neither;0,524000167847
SJW88m;2017-05-30-10-51-29;9;15;1,09558093858;True;right;1,9;0,15;1;right;0,391999959946
SJW88m;2017-05-30-10-51-29;9;16;1,18887453339;False;right;1,3;0,0;-1;neither;0,486000061035
SJW88m;2017-05-30-10-51-29;9;17;1,03512072247;True;both;1,5;0,15;1;both;0,394999980927
SJW88m;2017-05-30-10-51-29;9;18;0,882741319844;False;both;1,1;0,0;1;both;0,405999898911
SJW88m;2017-05-30-10-51-29;9;19;1,04092459613;True;right;1,7;0,0;1;right;0,367000102997
SJW88m;2017-05-30-10-51-29;9;20;0,889785045931;False;left;1,3;0,0;-1;neither;0,424999952316
SJW88m;2017-05-30-10-51-29;9;21;1,10498855311;True;right;1,3;0,15;-1;neither;0,390000104904
SJW88m;2017-05-30-10-51-29;9;22;0,814935017074;False;left;1,5;0,0;1;neither;0,845999956131
SJW88m;2017-05-30-10-51-29;9;23;0,801110275127;True;right;1,1;-0,15;1;both;0,481999874115
SJW88m;2017-05-30-10-51-29;9;24;0,994907103914;False;left;1,1;-0,15;-1;neither;0,398000001907
SJW88m;2017-05-30-10-51-29;9;25;0,922839546997;True;right;1,5;0,15;1;neither;0,411999940872
SJW88m;2017-05-30-10-51-29;9;26;0,976808236136;False;right;1,9;0,15;-1;neither;0,40499997139
SJW88m;2017-05-30-10-51-29;9;27;0,933778636007;True;left;1,5;-0,15;-1;neither;0,454999923706
SJW88m;2017-05-30-10-51-29;9;28;1,03628995414;False;right;1,5;0,0;1;right;0,453999996185
SJW88m;2017-05-30-10-51-29;9;29;0,838675345286;True;right;1,3;0,0;1;neither;0,727999925613
SJW88m;2017-05-30-10-51-29;9;30;0,805664224851;False;neither;1,3;-0,15;-1;neither;0,424000024796
SJW88m;2017-05-30-10-51-29;9;31;0,927317669379;True;neither;1,7;0,0;-1;neither;0,659999847412
SJW88m;2017-05-30-10-51-29;9;32;1,07830946629;False;neither;1,7;-0,15;1;neither;0,447999954224
SJW88m;2017-05-30-10-51-29;9;33;1,13849444131;True;right;1,7;0,15;1;neither;0,362999916077
SJW88m;2017-05-30-10-51-29;9;34;1,13178365762;False;right;1,1;0,0;1;neither;0,428999900818
SJW88m;2017-05-30-10-51-29;9;35;0,884980233386;True;left;1,5;0,15;-1;neither;0,461999893188
SJW88m;2017-05-30-10-51-29;9;36;0,859430694797;False;left;1,7;0,15;1;neither;0,40499997139
SJW88m;2017-05-30-10-51-29;9;37;0,802108834046;True;right;1,5;-0,15;1;neither;0,523000001907
SJW88m;2017-05-30-10-51-29;9;38;1,17615028313;False;right;1,7;-0,15;1;neither;0,458999872208
SJW88m;2017-05-30-10-51-29;9;39;1,15022009634;True;neither;1,1;-0,15;-1;neither;0,384999990463
SJW88m;2017-05-30-10-51-29;9;40;0,847225437138;False;left;1,9;-0,15;1;both;0,407999992371
SJW88m;2017-05-30-10-51-29;9;41;0,990920316601;True;left;1,9;0,0;1;neither;0,745000123978
SJW88m;2017-05-30-10-51-29;9;42;1,10966792887;False;right;1,1;0,0;-1;both;0,412999868393
SJW88m;2017-05-30-10-51-29;9;43;1,08750002753;True;right;1,3;-0,15;1;right;0,697000026703
SJW88m;2017-05-30-10-51-29;9;44;0,839758252537;False;left;1,1;-0,15;1;left;0,423999786377
SJW88m;2017-05-30-10-51-29;9;45;0,944734616344;True;neither;1,9;0,15;1;neither;0,441999912262
SJW88m;2017-05-30-10-51-29;10;1;0,899048555833;False;neither;1,3;0,0;1;neither;0,724999904633
SJW88m;2017-05-30-10-51-29;10;2;0,912385432303;True;left;1,3;0,0;1;neither;0,426000118256
SJW88m;2017-05-30-10-51-29;10;3;1,19576098059;False;both;1,1;0,15;-1;both;0,350000143051
SJW88m;2017-05-30-10-51-29;10;4;0,875131267507;True;left;1,7;0,0;1;neither;0,466000080109
SJW88m;2017-05-30-10-51-29;10;5;0,951329960176;False;right;1,9;0,0;-1;neither;0,442999839783
SJW88m;2017-05-30-10-51-29;10;6;1,01080133206;True;left;1,7;-0,15;1;left;0,417999982834
SJW88m;2017-05-30-10-51-29;10;7;0,81173968439;False;left;1,3;0,15;-1;left;0,404000043869
SJW88m;2017-05-30-10-51-29;10;8;1,09698224822;True;both;1,3;-0,15;-1;both;1,04799985886
SJW88m;2017-05-30-10-51-29;10;9;1,00467999916;False;right;1,7;0,15;-1;right;0,434000015259
SJW88m;2017-05-30-10-51-29;10;10;0,962003533915;True;both;1,3;0,15;-1;both;0,43499994278
SJW88m;2017-05-30-10-51-29;10;11;1,16809561346;False;left;1,7;-0,15;1;left;0,357000112534
SJW88m;2017-05-30-10-51-29;10;12;1,19455101989;True;right;1,3;-0,15;1;right;0,382999897003
SJW88m;2017-05-30-10-51-29;10;13;0,873769441069;False;neither;1,1;0,0;1;neither;0,788000106812
SJW88m;2017-05-30-10-51-29;10;14;1,1847804612;True;left;1,7;0,15;1;neither;0,458000183105
SJW88m;2017-05-30-10-51-29;10;15;1,03844414373;False;right;1,9;0,15;-1;neither;0,388000011444
SJW88m;2017-05-30-10-51-29;10;16;0,960788910029;True;right;1,3;0,0;1;right;0,373000144958
SJW88m;2017-05-30-10-51-29;10;17;0,858109610963;False;both;1,5;0,15;1;both;0,405999898911
SJW88m;2017-05-30-10-51-29;10;18;1,00026801779;True;both;1,1;0,0;-1;left;1,14700007439
SJW88m;2017-05-30-10-51-29;10;19;0,958397842684;False;right;1,7;0,0;1;right;0,389999866486
SJW88m;2017-05-30-10-51-29;10;20;0,827712354884;True;left;1,3;0,0;1;left;0,386999845505
SJW88m;2017-05-30-10-51-29;10;21;1,19239197279;False;right;1,3;0,15;1;right;0,381999969482
SJW88m;2017-05-30-10-51-29;10;22;1,00593523928;True;left;1,5;0,0;-1;neither;0,361999988556
SJW88m;2017-05-30-10-51-29;10;23;0,989548415646;False;right;1,1;-0,15;1;right;0,513999938965
SJW88m;2017-05-30-10-51-29;10;24;0,962888430354;True;left;1,1;-0,15;-1;neither;0,395999908447
SJW88m;2017-05-30-10-51-29;10;25;0,940801212938;False;right;1,5;0,15;-1;neither;0,463999986649
SJW88m;2017-05-30-10-51-29;10;26;0,835552579194;True;right;1,9;0,15;1;neither;0,423000097275
SJW88m;2017-05-30-10-51-29;10;27;1,015620496;False;left;1,5;-0,15;-1;neither;0,442000150681
SJW88m;2017-05-30-10-51-29;10;28;1,19133019418;True;right;1,5;0,0;-1;neither;0,424999952316
SJW88m;2017-05-30-10-51-29;10;29;1,07318952992;False;right;1,3;0,0;1;neither;0,389000177383
SJW88m;2017-05-30-10-51-29;10;30;0,916119729557;True;neither;1,3;-0,15;1;neither;0,391000032425
SJW88m;2017-05-30-10-51-29;10;31;1,05256610165;False;neither;1,7;0,0;1;neither;0,40499997139
SJW88m;2017-05-30-10-51-29;10;32;0,826863335658;True;neither;1,7;-0,15;1;neither;0,485999822617
SJW88m;2017-05-30-10-51-29;10;33;0,813393712549;False;right;1,7;0,15;1;right;0,363999843597
SJW88m;2017-05-30-10-51-29;10;34;0,830257252924;True;right;1,1;0,0;-1;neither;0,425999879837
SJW88m;2017-05-30-10-51-29;10;35;1,10147367465;False;left;1,5;0,15;-1;neither;0,411000013351
SJW88m;2017-05-30-10-51-29;10;36;1,07333442479;True;left;1,7;0,15;-1;neither;0,410999774933
SJW88m;2017-05-30-10-51-29;10;37;1,10259259288;False;right;1,5;-0,15;-1;both;0,446000099182
SJW88m;2017-05-30-10-51-29;10;38;0,914661131185;True;right;1,7;-0,15;-1;both;0,384999990463
SJW88m;2017-05-30-10-51-29;10;39;1,199666726;False;neither;1,1;-0,15;-1;neither;0,499000072479
SJW88m;2017-05-30-10-51-29;10;40;0,922482318971;True;left;1,9;-0,15;-1;both;0,434000015259
SJW88m;2017-05-30-10-51-29;10;41;1,17487807988;False;left;1,9;0,0;1;neither;1,43099999428
SJW88m;2017-05-30-10-51-29;10;42;0,803213996757;True;right;1,1;0,0;-1;right;0,391000032425
SJW88m;2017-05-30-10-51-29;10;43;1,17442349483;False;right;1,3;-0,15;1;right;0,44000005722
SJW88m;2017-05-30-10-51-29;10;44;0,978720263;True;left;1,1;-0,15;1;left;0,408999919891
SJW88m;2017-05-30-10-51-29;10;45;1,16767422186;False;neither;1,9;0,15;-1;right;0,395999908447
